"rt","stimulus","button_pressed","trial_type","trial_index","time_elapsed","internal_node_id","BDS_modality","subject","key_press","designation","span","answer","correct","was_correct","spanHistory","max_span","total_correct","value"
"5730","<p>Willkommen bei der <b>Ziffernspannen-Aufgabe.</b></p><p>Bei jedem Versuch h&ouml;ren Sie eine Ziffernfolge und sollen diese in umgekehrter Reihenfolge wiedergeben.</p><p>Zum Beispiel, falls sie die Zahlen <b style=""color:blue;"">Eins</b>, <b style=""color:blue;"">Zwei</b>, <b style=""color:blue;"">Drei</b>, geh&ouml;rt haben, dann antworten Sie mit <b style=""color:blue;"">3</b>, <b style=""color:blue;"">2</b>, <b style=""color:blue;"">1</b></p><p>Um eine hohe Qualit&auml;t der Daten zu gew&auml;hrleisten, ist es sehr wichtig, dass Sie keine Ged&auml;chtnisst&uuml;tze (z.B. Stift und Papier) verwenden.<br>Bitte bearbeiten Sie die Aufgabe ausschlie&#223;lich im Kopf.</p><p>Es werden insgesamt 12 Durchl&auml;ufe gemacht. Die Teilname dauert etwa 10 Minuten. Am Ende sehen sie Ihre erreichte Punktzahl.</p>","0","html-button-response","0","5731","0.0-0.0-0.0","auditory","A02F50","","","","","","","","","",""
"2274","<p>Test 1 von 12</p>","0","html-button-response","1","8008","0.0-0.0-1.0-0.0-0.0","auditory","A02F50","","","","","","","","","",""
"null","digits/nine.wav","","audio-keyboard-response","2","9271","0.0-0.0-1.0-0.0-1.0-0.0","auditory","A02F50","null","","","","","","","","",""
"null","digits/eight.wav","","audio-keyboard-response","3","10150","0.0-0.0-1.0-0.0-1.1-0.1","auditory","A02F50","null","","","","","","","","",""
"null","digits/one.wav","","audio-keyboard-response","4","11280","0.0-0.0-1.0-0.0-1.2-0.2","auditory","A02F50","null","","","","","","","","",""
"10281","<div class = numbox><p>Wie lauteten die Zahlen <b>in umgekehrter Reihenfolge</b>?<br> Antwort mit Enter-Taste best&auml;tigen.</p><button id = button_1 class = ""square num-button"" onclick = ""recordClick(this)""><div class = content><div class = numbers>1</div></div></button><button id = button_2 class = ""square num-button"" onclick = ""recordClick(this)""><div class = content><div class = numbers>2</div></div></button><button id = button_3 class = ""square num-button"" onclick = ""recordClick(this)""><div class = content><div class = numbers>3</div></div></button><button id = button_4 class = ""square num-button"" onclick = ""recordClick(this)""><div class = content><div class = numbers>4</div></div></button><button id = button_5 class = ""square num-button"" onclick = ""recordClick(this)""><div class = content><div class = numbers>5</div></div></button><button id = button_6 class = ""square num-button"" onclick = ""recordClick(this)""><div class = content><div class = numbers>6</div></div></button><button id = button_7 class = ""square num-button"" onclick = ""recordClick(this)""><div class = content><div class = numbers>7</div></div></button><button id = button_8 class = ""square num-button"" onclick = ""recordClick(this)""><div class = content><div class = numbers>8</div></div></button><button id = button_9 class = ""square num-button"" onclick = ""recordClick(this)""><div class = content><div class = numbers>9</div></div></button><button class = clear_button id = ""ClearButton"" onclick = ""clearResponse()"">L&ouml;schen</button><p><u><b>Ihre Antwort:</b></u></p><div id=echoed_txt style=""font-size: 30px; color:blue;""><b></b></div></div>","","html-keyboard-response","5","21813","0.0-0.0-1.0-0.0-2.0","auditory","A02F50","13","BDS-RESPONSE","3","1,8,9","1,8,9","1","3,4,5,6,7,8,9,10,11,12,13,14","0","0",""
"","","","call-function","6","21814","0.0-0.0-1.0-0.0-3.0","auditory","A02F50","","","","","","","","","",""
"2528","<p>Test 2 von 12</p>","0","html-button-response","7","24343","0.0-0.0-1.1-0.1-0.1","auditory","A02F50","","","","","","","","","",""
"null","digits/seven.wav","","audio-keyboard-response","8","25670","0.0-0.0-1.1-0.1-1.3-0.3","auditory","A02F50","null","","","","","","","","",""
"null","digits/four.wav","","audio-keyboard-response","9","26690","0.0-0.0-1.1-0.1-1.4-0.4","auditory","A02F50","null","","","","","","","","",""
"null","digits/three.wav","","audio-keyboard-response","10","27690","0.0-0.0-1.1-0.1-1.5-0.5","auditory","A02F50","null","","","","","","","","",""
"null","digits/six.wav","","audio-keyboard-response","11","28740","0.0-0.0-1.1-0.1-1.6-0.6","auditory","A02F50","null","","","","","","","","",""
"8318","<div class = numbox><p>Wie lauteten die Zahlen <b>in umgekehrter Reihenfolge</b>?<br> Antwort mit Enter-Taste best&auml;tigen.</p><button id = button_1 class = ""square num-button"" onclick = ""recordClick(this)""><div class = content><div class = numbers>1</div></div></button><button id = button_2 class = ""square num-button"" onclick = ""recordClick(this)""><div class = content><div class = numbers>2</div></div></button><button id = button_3 class = ""square num-button"" onclick = ""recordClick(this)""><div class = content><div class = numbers>3</div></div></button><button id = button_4 class = ""square num-button"" onclick = ""recordClick(this)""><div class = content><div class = numbers>4</div></div></button><button id = button_5 class = ""square num-button"" onclick = ""recordClick(this)""><div class = content><div class = numbers>5</div></div></button><button id = button_6 class = ""square num-button"" onclick = ""recordClick(this)""><div class = content><div class = numbers>6</div></div></button><button id = button_7 class = ""square num-button"" onclick = ""recordClick(this)""><div class = content><div class = numbers>7</div></div></button><button id = button_8 class = ""square num-button"" onclick = ""recordClick(this)""><div class = content><div class = numbers>8</div></div></button><button id = button_9 class = ""square num-button"" onclick = ""recordClick(this)""><div class = content><div class = numbers>9</div></div></button><button class = clear_button id = ""ClearButton"" onclick = ""clearResponse()"">L&ouml;schen</button><p><u><b>Ihre Antwort:</b></u></p><div id=echoed_txt style=""font-size: 30px; color:blue;""><b></b></div></div>","","html-keyboard-response","12","37311","0.0-0.0-1.1-0.1-2.1","auditory","A02F50","13","BDS-RESPONSE","4","6,3,4,7","6,3,4,7","1","3,4,5,6,7,8,9,10,11,12,13,14","3","1",""
"","","","call-function","13","37311","0.0-0.0-1.1-0.1-3.1","auditory","A02F50","","","","","","","","","",""
"1554","<p>Test 3 von 12</p>","0","html-button-response","14","38865","0.0-0.0-1.2-0.2-0.2","auditory","A02F50","","","","","","","","","",""
"null","digits/one.wav","","audio-keyboard-response","15","40239","0.0-0.0-1.2-0.2-1.7-0.7","auditory","A02F50","null","","","","","","","","",""
"null","digits/seven.wav","","audio-keyboard-response","16","41320","0.0-0.0-1.2-0.2-1.8-0.8","auditory","A02F50","null","","","","","","","","",""
"null","digits/nine.wav","","audio-keyboard-response","17","42250","0.0-0.0-1.2-0.2-1.9-0.9","auditory","A02F50","null","","","","","","","","",""
"null","digits/three.wav","","audio-keyboard-response","18","43250","0.0-0.0-1.2-0.2-1.10-0.10","auditory","A02F50","null","","","","","","","","",""
"null","digits/eight.wav","","audio-keyboard-response","19","44129","0.0-0.0-1.2-0.2-1.11-0.11","auditory","A02F50","null","","","","","","","","",""
"10518","<div class = numbox><p>Wie lauteten die Zahlen <b>in umgekehrter Reihenfolge</b>?<br> Antwort mit Enter-Taste best&auml;tigen.</p><button id = button_1 class = ""square num-button"" onclick = ""recordClick(this)""><div class = content><div class = numbers>1</div></div></button><button id = button_2 class = ""square num-button"" onclick = ""recordClick(this)""><div class = content><div class = numbers>2</div></div></button><button id = button_3 class = ""square num-button"" onclick = ""recordClick(this)""><div class = content><div class = numbers>3</div></div></button><button id = button_4 class = ""square num-button"" onclick = ""recordClick(this)""><div class = content><div class = numbers>4</div></div></button><button id = button_5 class = ""square num-button"" onclick = ""recordClick(this)""><div class = content><div class = numbers>5</div></div></button><button id = button_6 class = ""square num-button"" onclick = ""recordClick(this)""><div class = content><div class = numbers>6</div></div></button><button id = button_7 class = ""square num-button"" onclick = ""recordClick(this)""><div class = content><div class = numbers>7</div></div></button><button id = button_8 class = ""square num-button"" onclick = ""recordClick(this)""><div class = content><div class = numbers>8</div></div></button><button id = button_9 class = ""square num-button"" onclick = ""recordClick(this)""><div class = content><div class = numbers>9</div></div></button><button class = clear_button id = ""ClearButton"" onclick = ""clearResponse()"">L&ouml;schen</button><p><u><b>Ihre Antwort:</b></u></p><div id=echoed_txt style=""font-size: 30px; color:blue;""><b></b></div></div>","","html-keyboard-response","20","54899","0.0-0.0-1.2-0.2-2.2","auditory","A02F50","13","BDS-RESPONSE","5","8,3,9,7,1","8,3,9,7,1","1","3,4,5,6,7,8,9,10,11,12,13,14","4","2",""
"","","","call-function","21","54899","0.0-0.0-1.2-0.2-3.2","auditory","A02F50","","","","","","","","","",""
"2704","<p>Test 4 von 12</p>","0","html-button-response","22","57604","0.0-0.0-1.3-0.3-0.3","auditory","A02F50","","","","","","","","","",""
"null","digits/three.wav","","audio-keyboard-response","23","58849","0.0-0.0-1.3-0.3-1.12-0.12","auditory","A02F50","null","","","","","","","","",""
"null","digits/nine.wav","","audio-keyboard-response","24","59780","0.0-0.0-1.3-0.3-1.13-0.13","auditory","A02F50","null","","","","","","","","",""
"null","digits/one.wav","","audio-keyboard-response","25","60910","0.0-0.0-1.3-0.3-1.14-0.14","auditory","A02F50","null","","","","","","","","",""
"null","digits/six.wav","","audio-keyboard-response","26","61960","0.0-0.0-1.3-0.3-1.15-0.15","auditory","A02F50","null","","","","","","","","",""
"null","digits/five.wav","","audio-keyboard-response","27","63000","0.0-0.0-1.3-0.3-1.16-0.16","auditory","A02F50","null","","","","","","","","",""
"null","digits/eight.wav","","audio-keyboard-response","28","63880","0.0-0.0-1.3-0.3-1.17-0.17","auditory","A02F50","null","","","","","","","","",""
"20457","<div class = numbox><p>Wie lauteten die Zahlen <b>in umgekehrter Reihenfolge</b>?<br> Antwort mit Enter-Taste best&auml;tigen.</p><button id = button_1 class = ""square num-button"" onclick = ""recordClick(this)""><div class = content><div class = numbers>1</div></div></button><button id = button_2 class = ""square num-button"" onclick = ""recordClick(this)""><div class = content><div class = numbers>2</div></div></button><button id = button_3 class = ""square num-button"" onclick = ""recordClick(this)""><div class = content><div class = numbers>3</div></div></button><button id = button_4 class = ""square num-button"" onclick = ""recordClick(this)""><div class = content><div class = numbers>4</div></div></button><button id = button_5 class = ""square num-button"" onclick = ""recordClick(this)""><div class = content><div class = numbers>5</div></div></button><button id = button_6 class = ""square num-button"" onclick = ""recordClick(this)""><div class = content><div class = numbers>6</div></div></button><button id = button_7 class = ""square num-button"" onclick = ""recordClick(this)""><div class = content><div class = numbers>7</div></div></button><button id = button_8 class = ""square num-button"" onclick = ""recordClick(this)""><div class = content><div class = numbers>8</div></div></button><button id = button_9 class = ""square num-button"" onclick = ""recordClick(this)""><div class = content><div class = numbers>9</div></div></button><button class = clear_button id = ""ClearButton"" onclick = ""clearResponse()"">L&ouml;schen</button><p><u><b>Ihre Antwort:</b></u></p><div id=echoed_txt style=""font-size: 30px; color:blue;""><b></b></div></div>","","html-keyboard-response","29","84588","0.0-0.0-1.3-0.3-2.3","auditory","A02F50","13","BDS-RESPONSE","6","8,5,6,1,9,3","8,5,6,1,9,3","1","3,4,5,6,7,8,9,10,11,12,13,14","5","3",""
"","","","call-function","30","84588","0.0-0.0-1.3-0.3-3.3","auditory","A02F50","","","","","","","","","",""
"1610","<p>Test 5 von 12</p>","0","html-button-response","31","86198","0.0-0.0-1.4-0.4-0.4","auditory","A02F50","","","","","","","","","",""
"null","digits/seven.wav","","audio-keyboard-response","32","87519","0.0-0.0-1.4-0.4-1.18-0.18","auditory","A02F50","null","","","","","","","","",""
"null","digits/nine.wav","","audio-keyboard-response","33","88450","0.0-0.0-1.4-0.4-1.19-0.19","auditory","A02F50","null","","","","","","","","",""
"null","digits/four.wav","","audio-keyboard-response","34","89469","0.0-0.0-1.4-0.4-1.20-0.20","auditory","A02F50","null","","","","","","","","",""
"null","digits/eight.wav","","audio-keyboard-response","35","90350","0.0-0.0-1.4-0.4-1.21-0.21","auditory","A02F50","null","","","","","","","","",""
"null","digits/six.wav","","audio-keyboard-response","36","91400","0.0-0.0-1.4-0.4-1.22-0.22","auditory","A02F50","null","","","","","","","","",""
"null","digits/one.wav","","audio-keyboard-response","37","92530","0.0-0.0-1.4-0.4-1.23-0.23","auditory","A02F50","null","","","","","","","","",""
"null","digits/five.wav","","audio-keyboard-response","38","93570","0.0-0.0-1.4-0.4-1.24-0.24","auditory","A02F50","null","","","","","","","","",""
"13345","<div class = numbox><p>Wie lauteten die Zahlen <b>in umgekehrter Reihenfolge</b>?<br> Antwort mit Enter-Taste best&auml;tigen.</p><button id = button_1 class = ""square num-button"" onclick = ""recordClick(this)""><div class = content><div class = numbers>1</div></div></button><button id = button_2 class = ""square num-button"" onclick = ""recordClick(this)""><div class = content><div class = numbers>2</div></div></button><button id = button_3 class = ""square num-button"" onclick = ""recordClick(this)""><div class = content><div class = numbers>3</div></div></button><button id = button_4 class = ""square num-button"" onclick = ""recordClick(this)""><div class = content><div class = numbers>4</div></div></button><button id = button_5 class = ""square num-button"" onclick = ""recordClick(this)""><div class = content><div class = numbers>5</div></div></button><button id = button_6 class = ""square num-button"" onclick = ""recordClick(this)""><div class = content><div class = numbers>6</div></div></button><button id = button_7 class = ""square num-button"" onclick = ""recordClick(this)""><div class = content><div class = numbers>7</div></div></button><button id = button_8 class = ""square num-button"" onclick = ""recordClick(this)""><div class = content><div class = numbers>8</div></div></button><button id = button_9 class = ""square num-button"" onclick = ""recordClick(this)""><div class = content><div class = numbers>9</div></div></button><button class = clear_button id = ""ClearButton"" onclick = ""clearResponse()"">L&ouml;schen</button><p><u><b>Ihre Antwort:</b></u></p><div id=echoed_txt style=""font-size: 30px; color:blue;""><b></b></div></div>","","html-keyboard-response","39","107166","0.0-0.0-1.4-0.4-2.4","auditory","A02F50","13","BDS-RESPONSE","7","5,1,6,8,4,9,7","5,1,6,8,4,9,7","1","3,4,5,6,7,8,9,10,11,12,13,14","6","4",""
"","","","call-function","40","107167","0.0-0.0-1.4-0.4-3.4","auditory","A02F50","","","","","","","","","",""
"1604","<p>Test 6 von 12</p>","0","html-button-response","41","108772","0.0-0.0-1.5-0.5-0.5","auditory","A02F50","","","","","","","","","",""
"null","digits/three.wav","","audio-keyboard-response","42","110029","0.0-0.0-1.5-0.5-1.25-0.25","auditory","A02F50","null","","","","","","","","",""
"null","digits/five.wav","","audio-keyboard-response","43","111070","0.0-0.0-1.5-0.5-1.26-0.26","auditory","A02F50","null","","","","","","","","",""
"null","digits/two.wav","","audio-keyboard-response","44","112119","0.0-0.0-1.5-0.5-1.27-0.27","auditory","A02F50","null","","","","","","","","",""
"null","digits/six.wav","","audio-keyboard-response","45","113170","0.0-0.0-1.5-0.5-1.28-0.28","auditory","A02F50","null","","","","","","","","",""
"null","digits/eight.wav","","audio-keyboard-response","46","114050","0.0-0.0-1.5-0.5-1.29-0.29","auditory","A02F50","null","","","","","","","","",""
"null","digits/seven.wav","","audio-keyboard-response","47","115119","0.0-0.0-1.5-0.5-1.30-0.30","auditory","A02F50","null","","","","","","","","",""
"null","digits/four.wav","","audio-keyboard-response","48","116139","0.0-0.0-1.5-0.5-1.31-0.31","auditory","A02F50","null","","","","","","","","",""
"null","digits/nine.wav","","audio-keyboard-response","49","117070","0.0-0.0-1.5-0.5-1.32-0.32","auditory","A02F50","null","","","","","","","","",""
"14963","<div class = numbox><p>Wie lauteten die Zahlen <b>in umgekehrter Reihenfolge</b>?<br> Antwort mit Enter-Taste best&auml;tigen.</p><button id = button_1 class = ""square num-button"" onclick = ""recordClick(this)""><div class = content><div class = numbers>1</div></div></button><button id = button_2 class = ""square num-button"" onclick = ""recordClick(this)""><div class = content><div class = numbers>2</div></div></button><button id = button_3 class = ""square num-button"" onclick = ""recordClick(this)""><div class = content><div class = numbers>3</div></div></button><button id = button_4 class = ""square num-button"" onclick = ""recordClick(this)""><div class = content><div class = numbers>4</div></div></button><button id = button_5 class = ""square num-button"" onclick = ""recordClick(this)""><div class = content><div class = numbers>5</div></div></button><button id = button_6 class = ""square num-button"" onclick = ""recordClick(this)""><div class = content><div class = numbers>6</div></div></button><button id = button_7 class = ""square num-button"" onclick = ""recordClick(this)""><div class = content><div class = numbers>7</div></div></button><button id = button_8 class = ""square num-button"" onclick = ""recordClick(this)""><div class = content><div class = numbers>8</div></div></button><button id = button_9 class = ""square num-button"" onclick = ""recordClick(this)""><div class = content><div class = numbers>9</div></div></button><button class = clear_button id = ""ClearButton"" onclick = ""clearResponse()"">L&ouml;schen</button><p><u><b>Ihre Antwort:</b></u></p><div id=echoed_txt style=""font-size: 30px; color:blue;""><b></b></div></div>","","html-keyboard-response","50","132286","0.0-0.0-1.5-0.5-2.5","auditory","A02F50","13","BDS-RESPONSE","8","9,4,7,8,6,2,5,3","9,4,7,8,6,2,5,3","1","3,4,5,6,7,8,9,10,11,12,13,14","7","5",""
"","","","call-function","51","132286","0.0-0.0-1.5-0.5-3.5","auditory","A02F50","","","","","","","","","",""
"2785","<p>Test 7 von 12</p>","0","html-button-response","52","135072","0.0-0.0-1.6-0.6-0.6","auditory","A02F50","","","","","","","","","",""
"null","digits/nine.wav","","audio-keyboard-response","53","136250","0.0-0.0-1.6-0.6-1.33-0.33","auditory","A02F50","null","","","","","","","","",""
"null","digits/two.wav","","audio-keyboard-response","54","137299","0.0-0.0-1.6-0.6-1.34-0.34","auditory","A02F50","null","","","","","","","","",""
"null","digits/five.wav","","audio-keyboard-response","55","138340","0.0-0.0-1.6-0.6-1.35-0.35","auditory","A02F50","null","","","","","","","","",""
"null","digits/eight.wav","","audio-keyboard-response","56","139220","0.0-0.0-1.6-0.6-1.36-0.36","auditory","A02F50","null","","","","","","","","",""
"null","digits/three.wav","","audio-keyboard-response","57","140229","0.0-0.0-1.6-0.6-1.37-0.37","auditory","A02F50","null","","","","","","","","",""
"null","digits/one.wav","","audio-keyboard-response","58","141360","0.0-0.0-1.6-0.6-1.38-0.38","auditory","A02F50","null","","","","","","","","",""
"null","digits/four.wav","","audio-keyboard-response","59","142380","0.0-0.0-1.6-0.6-1.39-0.39","auditory","A02F50","null","","","","","","","","",""
"null","digits/seven.wav","","audio-keyboard-response","60","143449","0.0-0.0-1.6-0.6-1.40-0.40","auditory","A02F50","null","","","","","","","","",""
"null","digits/six.wav","","audio-keyboard-response","61","144499","0.0-0.0-1.6-0.6-1.41-0.41","auditory","A02F50","null","","","","","","","","",""
"14598","<div class = numbox><p>Wie lauteten die Zahlen <b>in umgekehrter Reihenfolge</b>?<br> Antwort mit Enter-Taste best&auml;tigen.</p><button id = button_1 class = ""square num-button"" onclick = ""recordClick(this)""><div class = content><div class = numbers>1</div></div></button><button id = button_2 class = ""square num-button"" onclick = ""recordClick(this)""><div class = content><div class = numbers>2</div></div></button><button id = button_3 class = ""square num-button"" onclick = ""recordClick(this)""><div class = content><div class = numbers>3</div></div></button><button id = button_4 class = ""square num-button"" onclick = ""recordClick(this)""><div class = content><div class = numbers>4</div></div></button><button id = button_5 class = ""square num-button"" onclick = ""recordClick(this)""><div class = content><div class = numbers>5</div></div></button><button id = button_6 class = ""square num-button"" onclick = ""recordClick(this)""><div class = content><div class = numbers>6</div></div></button><button id = button_7 class = ""square num-button"" onclick = ""recordClick(this)""><div class = content><div class = numbers>7</div></div></button><button id = button_8 class = ""square num-button"" onclick = ""recordClick(this)""><div class = content><div class = numbers>8</div></div></button><button id = button_9 class = ""square num-button"" onclick = ""recordClick(this)""><div class = content><div class = numbers>9</div></div></button><button class = clear_button id = ""ClearButton"" onclick = ""clearResponse()"">L&ouml;schen</button><p><u><b>Ihre Antwort:</b></u></p><div id=echoed_txt style=""font-size: 30px; color:blue;""><b></b></div></div>","","html-keyboard-response","62","159349","0.0-0.0-1.6-0.6-2.6","auditory","A02F50","13","BDS-RESPONSE","9","6,7,4,1,3,8,5,2,9","6,7,4,1,3,8,5,2,9","1","3,4,5,6,7,8,9,10,11,12,13,14","8","6",""
"","","","call-function","63","159349","0.0-0.0-1.6-0.6-3.6","auditory","A02F50","","","","","","","","","",""
"1503","<p>Test 8 von 12</p>","0","html-button-response","64","160854","0.0-0.0-1.7-0.7-0.7","auditory","A02F50","","","","","","","","","",""
"null","digits/one.wav","","audio-keyboard-response","65","162230","0.0-0.0-1.7-0.7-1.42-0.42","auditory","A02F50","null","","","","","","","","",""
"null","digits/eight.wav","","audio-keyboard-response","66","163110","0.0-0.0-1.7-0.7-1.43-0.43","auditory","A02F50","null","","","","","","","","",""
"null","digits/six.wav","","audio-keyboard-response","67","164159","0.0-0.0-1.7-0.7-1.44-0.44","auditory","A02F50","null","","","","","","","","",""
"null","digits/five.wav","","audio-keyboard-response","68","165200","0.0-0.0-1.7-0.7-1.45-0.45","auditory","A02F50","null","","","","","","","","",""
"null","digits/two.wav","","audio-keyboard-response","69","166250","0.0-0.0-1.7-0.7-1.46-0.46","auditory","A02F50","null","","","","","","","","",""
"null","digits/four.wav","","audio-keyboard-response","70","167269","0.0-0.0-1.7-0.7-1.47-0.47","auditory","A02F50","null","","","","","","","","",""
"null","digits/seven.wav","","audio-keyboard-response","71","168349","0.0-0.0-1.7-0.7-1.48-0.48","auditory","A02F50","null","","","","","","","","",""
"null","digits/nine.wav","","audio-keyboard-response","72","169280","0.0-0.0-1.7-0.7-1.49-0.49","auditory","A02F50","null","","","","","","","","",""
"null","digits/three.wav","","audio-keyboard-response","73","170290","0.0-0.0-1.7-0.7-1.50-0.50","auditory","A02F50","null","","","","","","","","",""
"null","digits/seven.wav","","audio-keyboard-response","74","171359","0.0-0.0-1.7-0.7-1.51-0.51","auditory","A02F50","null","","","","","","","","",""
"21029","<div class = numbox><p>Wie lauteten die Zahlen <b>in umgekehrter Reihenfolge</b>?<br> Antwort mit Enter-Taste best&auml;tigen.</p><button id = button_1 class = ""square num-button"" onclick = ""recordClick(this)""><div class = content><div class = numbers>1</div></div></button><button id = button_2 class = ""square num-button"" onclick = ""recordClick(this)""><div class = content><div class = numbers>2</div></div></button><button id = button_3 class = ""square num-button"" onclick = ""recordClick(this)""><div class = content><div class = numbers>3</div></div></button><button id = button_4 class = ""square num-button"" onclick = ""recordClick(this)""><div class = content><div class = numbers>4</div></div></button><button id = button_5 class = ""square num-button"" onclick = ""recordClick(this)""><div class = content><div class = numbers>5</div></div></button><button id = button_6 class = ""square num-button"" onclick = ""recordClick(this)""><div class = content><div class = numbers>6</div></div></button><button id = button_7 class = ""square num-button"" onclick = ""recordClick(this)""><div class = content><div class = numbers>7</div></div></button><button id = button_8 class = ""square num-button"" onclick = ""recordClick(this)""><div class = content><div class = numbers>8</div></div></button><button id = button_9 class = ""square num-button"" onclick = ""recordClick(this)""><div class = content><div class = numbers>9</div></div></button><button class = clear_button id = ""ClearButton"" onclick = ""clearResponse()"">L&ouml;schen</button><p><u><b>Ihre Antwort:</b></u></p><div id=echoed_txt style=""font-size: 30px; color:blue;""><b></b></div></div>","","html-keyboard-response","75","192640","0.0-0.0-1.7-0.7-2.7","auditory","A02F50","13","BDS-RESPONSE","10","7,3,9,7,4,2,5,6,8,1","7,3,9,7,4,2,5,6,8,1","1","3,4,5,6,7,8,9,10,11,12,13,14","9","7",""
"","","","call-function","76","192640","0.0-0.0-1.7-0.7-3.7","auditory","A02F50","","","","","","","","","",""
"1515","<p>Test 9 von 12</p>","0","html-button-response","77","194157","0.0-0.0-1.8-0.8-0.8","auditory","A02F50","","","","","","","","","",""
"null","digits/one.wav","","audio-keyboard-response","78","195529","0.0-0.0-1.8-0.8-1.52-0.52","auditory","A02F50","null","","","","","","","","",""
"null","digits/three.wav","","audio-keyboard-response","79","196529","0.0-0.0-1.8-0.8-1.53-0.53","auditory","A02F50","null","","","","","","","","",""
"null","digits/four.wav","","audio-keyboard-response","80","197550","0.0-0.0-1.8-0.8-1.54-0.54","auditory","A02F50","null","","","","","","","","",""
"null","digits/seven.wav","","audio-keyboard-response","81","198630","0.0-0.0-1.8-0.8-1.55-0.55","auditory","A02F50","null","","","","","","","","",""
"null","digits/nine.wav","","audio-keyboard-response","82","199559","0.0-0.0-1.8-0.8-1.56-0.56","auditory","A02F50","null","","","","","","","","",""
"null","digits/eight.wav","","audio-keyboard-response","83","200439","0.0-0.0-1.8-0.8-1.57-0.57","auditory","A02F50","null","","","","","","","","",""
"null","digits/six.wav","","audio-keyboard-response","84","201489","0.0-0.0-1.8-0.8-1.58-0.58","auditory","A02F50","null","","","","","","","","",""
"null","digits/two.wav","","audio-keyboard-response","85","202540","0.0-0.0-1.8-0.8-1.59-0.59","auditory","A02F50","null","","","","","","","","",""
"null","digits/five.wav","","audio-keyboard-response","86","203580","0.0-0.0-1.8-0.8-1.60-0.60","auditory","A02F50","null","","","","","","","","",""
"null","digits/two.wav","","audio-keyboard-response","87","204630","0.0-0.0-1.8-0.8-1.61-0.61","auditory","A02F50","null","","","","","","","","",""
"null","digits/nine.wav","","audio-keyboard-response","88","205560","0.0-0.0-1.8-0.8-1.62-0.62","auditory","A02F50","null","","","","","","","","",""
"23258","<div class = numbox><p>Wie lauteten die Zahlen <b>in umgekehrter Reihenfolge</b>?<br> Antwort mit Enter-Taste best&auml;tigen.</p><button id = button_1 class = ""square num-button"" onclick = ""recordClick(this)""><div class = content><div class = numbers>1</div></div></button><button id = button_2 class = ""square num-button"" onclick = ""recordClick(this)""><div class = content><div class = numbers>2</div></div></button><button id = button_3 class = ""square num-button"" onclick = ""recordClick(this)""><div class = content><div class = numbers>3</div></div></button><button id = button_4 class = ""square num-button"" onclick = ""recordClick(this)""><div class = content><div class = numbers>4</div></div></button><button id = button_5 class = ""square num-button"" onclick = ""recordClick(this)""><div class = content><div class = numbers>5</div></div></button><button id = button_6 class = ""square num-button"" onclick = ""recordClick(this)""><div class = content><div class = numbers>6</div></div></button><button id = button_7 class = ""square num-button"" onclick = ""recordClick(this)""><div class = content><div class = numbers>7</div></div></button><button id = button_8 class = ""square num-button"" onclick = ""recordClick(this)""><div class = content><div class = numbers>8</div></div></button><button id = button_9 class = ""square num-button"" onclick = ""recordClick(this)""><div class = content><div class = numbers>9</div></div></button><button class = clear_button id = ""ClearButton"" onclick = ""clearResponse()"">L&ouml;schen</button><p><u><b>Ihre Antwort:</b></u></p><div id=echoed_txt style=""font-size: 30px; color:blue;""><b></b></div></div>","","html-keyboard-response","89","229069","0.0-0.0-1.8-0.8-2.8","auditory","A02F50","13","BDS-RESPONSE","11","9,2,5,2,6,8,9,7,4,3,1","9,2,5,2,6,8,9,7,4,3,1","1","3,4,5,6,7,8,9,10,11,12,13,14","10","8",""
"","","","call-function","90","229070","0.0-0.0-1.8-0.8-3.8","auditory","A02F50","","","","","","","","","",""
"2631","<p>Test 10 von 12</p>","0","html-button-response","91","231702","0.0-0.0-1.9-0.9-0.9","auditory","A02F50","","","","","","","","","",""
"null","digits/four.wav","","audio-keyboard-response","92","232969","0.0-0.0-1.9-0.9-1.63-0.63","auditory","A02F50","null","","","","","","","","",""
"null","digits/nine.wav","","audio-keyboard-response","93","233899","0.0-0.0-1.9-0.9-1.64-0.64","auditory","A02F50","null","","","","","","","","",""
"null","digits/seven.wav","","audio-keyboard-response","94","234969","0.0-0.0-1.9-0.9-1.65-0.65","auditory","A02F50","null","","","","","","","","",""
"null","digits/two.wav","","audio-keyboard-response","95","236019","0.0-0.0-1.9-0.9-1.66-0.66","auditory","A02F50","null","","","","","","","","",""
"null","digits/six.wav","","audio-keyboard-response","96","237069","0.0-0.0-1.9-0.9-1.67-0.67","auditory","A02F50","null","","","","","","","","",""
"null","digits/five.wav","","audio-keyboard-response","97","238110","0.0-0.0-1.9-0.9-1.68-0.68","auditory","A02F50","null","","","","","","","","",""
"null","digits/three.wav","","audio-keyboard-response","98","239119","0.0-0.0-1.9-0.9-1.69-0.69","auditory","A02F50","null","","","","","","","","",""
"null","digits/eight.wav","","audio-keyboard-response","99","240000","0.0-0.0-1.9-0.9-1.70-0.70","auditory","A02F50","null","","","","","","","","",""
"null","digits/one.wav","","audio-keyboard-response","100","241129","0.0-0.0-1.9-0.9-1.71-0.71","auditory","A02F50","null","","","","","","","","",""
"null","digits/eight.wav","","audio-keyboard-response","101","242010","0.0-0.0-1.9-0.9-1.72-0.72","auditory","A02F50","null","","","","","","","","",""
"null","digits/five.wav","","audio-keyboard-response","102","243050","0.0-0.0-1.9-0.9-1.73-0.73","auditory","A02F50","null","","","","","","","","",""
"null","digits/nine.wav","","audio-keyboard-response","103","243979","0.0-0.0-1.9-0.9-1.74-0.74","auditory","A02F50","null","","","","","","","","",""
"33976","<div class = numbox><p>Wie lauteten die Zahlen <b>in umgekehrter Reihenfolge</b>?<br> Antwort mit Enter-Taste best&auml;tigen.</p><button id = button_1 class = ""square num-button"" onclick = ""recordClick(this)""><div class = content><div class = numbers>1</div></div></button><button id = button_2 class = ""square num-button"" onclick = ""recordClick(this)""><div class = content><div class = numbers>2</div></div></button><button id = button_3 class = ""square num-button"" onclick = ""recordClick(this)""><div class = content><div class = numbers>3</div></div></button><button id = button_4 class = ""square num-button"" onclick = ""recordClick(this)""><div class = content><div class = numbers>4</div></div></button><button id = button_5 class = ""square num-button"" onclick = ""recordClick(this)""><div class = content><div class = numbers>5</div></div></button><button id = button_6 class = ""square num-button"" onclick = ""recordClick(this)""><div class = content><div class = numbers>6</div></div></button><button id = button_7 class = ""square num-button"" onclick = ""recordClick(this)""><div class = content><div class = numbers>7</div></div></button><button id = button_8 class = ""square num-button"" onclick = ""recordClick(this)""><div class = content><div class = numbers>8</div></div></button><button id = button_9 class = ""square num-button"" onclick = ""recordClick(this)""><div class = content><div class = numbers>9</div></div></button><button class = clear_button id = ""ClearButton"" onclick = ""clearResponse()"">L&ouml;schen</button><p><u><b>Ihre Antwort:</b></u></p><div id=echoed_txt style=""font-size: 30px; color:blue;""><b></b></div></div>","","html-keyboard-response","104","278207","0.0-0.0-1.9-0.9-2.9","auditory","A02F50","13","BDS-RESPONSE","12","9,5,8,1,8,3,5,6,2,7,9,4","9,5,8,1,8,3,5,6,2,7,9,4","1","3,4,5,6,7,8,9,10,11,12,13,14","11","9",""
"","","","call-function","105","278207","0.0-0.0-1.9-0.9-3.9","auditory","A02F50","","","","","","","","","",""
"1652","<p>Test 11 von 12</p>","0","html-button-response","106","279861","0.0-0.0-1.10-0.10-0.10","auditory","A02F50","","","","","","","","","",""
"null","digits/one.wav","","audio-keyboard-response","107","281284","0.0-0.0-1.10-0.10-1.75-0.75","auditory","A02F50","null","","","","","","","","",""
"null","digits/four.wav","","audio-keyboard-response","108","282305","0.0-0.0-1.10-0.10-1.76-0.76","auditory","A02F50","null","","","","","","","","",""
"null","digits/six.wav","","audio-keyboard-response","109","283354","0.0-0.0-1.10-0.10-1.77-0.77","auditory","A02F50","null","","","","","","","","",""
"null","digits/eight.wav","","audio-keyboard-response","110","284235","0.0-0.0-1.10-0.10-1.78-0.78","auditory","A02F50","null","","","","","","","","",""
"null","digits/nine.wav","","audio-keyboard-response","111","285164","0.0-0.0-1.10-0.10-1.79-0.79","auditory","A02F50","null","","","","","","","","",""
"null","digits/three.wav","","audio-keyboard-response","112","286164","0.0-0.0-1.10-0.10-1.80-0.80","auditory","A02F50","null","","","","","","","","",""
"null","digits/two.wav","","audio-keyboard-response","113","287214","0.0-0.0-1.10-0.10-1.81-0.81","auditory","A02F50","null","","","","","","","","",""
"null","digits/five.wav","","audio-keyboard-response","114","288254","0.0-0.0-1.10-0.10-1.82-0.82","auditory","A02F50","null","","","","","","","","",""
"null","digits/seven.wav","","audio-keyboard-response","115","289325","0.0-0.0-1.10-0.10-1.83-0.83","auditory","A02F50","null","","","","","","","","",""
"null","digits/eight.wav","","audio-keyboard-response","116","290204","0.0-0.0-1.10-0.10-1.84-0.84","auditory","A02F50","null","","","","","","","","",""
"null","digits/six.wav","","audio-keyboard-response","117","291254","0.0-0.0-1.10-0.10-1.85-0.85","auditory","A02F50","null","","","","","","","","",""
"null","digits/two.wav","","audio-keyboard-response","118","292304","0.0-0.0-1.10-0.10-1.86-0.86","auditory","A02F50","null","","","","","","","","",""
"null","digits/seven.wav","","audio-keyboard-response","119","293384","0.0-0.0-1.10-0.10-1.87-0.87","auditory","A02F50","null","","","","","","","","",""
"22695","<div class = numbox><p>Wie lauteten die Zahlen <b>in umgekehrter Reihenfolge</b>?<br> Antwort mit Enter-Taste best&auml;tigen.</p><button id = button_1 class = ""square num-button"" onclick = ""recordClick(this)""><div class = content><div class = numbers>1</div></div></button><button id = button_2 class = ""square num-button"" onclick = ""recordClick(this)""><div class = content><div class = numbers>2</div></div></button><button id = button_3 class = ""square num-button"" onclick = ""recordClick(this)""><div class = content><div class = numbers>3</div></div></button><button id = button_4 class = ""square num-button"" onclick = ""recordClick(this)""><div class = content><div class = numbers>4</div></div></button><button id = button_5 class = ""square num-button"" onclick = ""recordClick(this)""><div class = content><div class = numbers>5</div></div></button><button id = button_6 class = ""square num-button"" onclick = ""recordClick(this)""><div class = content><div class = numbers>6</div></div></button><button id = button_7 class = ""square num-button"" onclick = ""recordClick(this)""><div class = content><div class = numbers>7</div></div></button><button id = button_8 class = ""square num-button"" onclick = ""recordClick(this)""><div class = content><div class = numbers>8</div></div></button><button id = button_9 class = ""square num-button"" onclick = ""recordClick(this)""><div class = content><div class = numbers>9</div></div></button><button class = clear_button id = ""ClearButton"" onclick = ""clearResponse()"">L&ouml;schen</button><p><u><b>Ihre Antwort:</b></u></p><div id=echoed_txt style=""font-size: 30px; color:blue;""><b></b></div></div>","","html-keyboard-response","120","316332","0.0-0.0-1.10-0.10-2.10","auditory","A02F50","13","BDS-RESPONSE","13","7,2,6,8,7,5,2,3,9,8,6,4,1","7,2,6,8,7,5,2,3,9,8,6,4,1","1","3,4,5,6,7,8,9,10,11,12,13,14","12","10",""
"","","","call-function","121","316332","0.0-0.0-1.10-0.10-3.10","auditory","A02F50","","","","","","","","","",""
"3851","<p>Test 12 von 12</p>","0","html-button-response","122","320184","0.0-0.0-1.11-0.11-0.11","auditory","A02F50","","","","","","","","","",""
"null","digits/five.wav","","audio-keyboard-response","123","321474","0.0-0.0-1.11-0.11-1.88-0.88","auditory","A02F50","null","","","","","","","","",""
"null","digits/seven.wav","","audio-keyboard-response","124","322554","0.0-0.0-1.11-0.11-1.89-0.89","auditory","A02F50","null","","","","","","","","",""
"null","digits/eight.wav","","audio-keyboard-response","125","323434","0.0-0.0-1.11-0.11-1.90-0.90","auditory","A02F50","null","","","","","","","","",""
"null","digits/two.wav","","audio-keyboard-response","126","324484","0.0-0.0-1.11-0.11-1.91-0.91","auditory","A02F50","null","","","","","","","","",""
"null","digits/six.wav","","audio-keyboard-response","127","325534","0.0-0.0-1.11-0.11-1.92-0.92","auditory","A02F50","null","","","","","","","","",""
"null","digits/nine.wav","","audio-keyboard-response","128","326464","0.0-0.0-1.11-0.11-1.93-0.93","auditory","A02F50","null","","","","","","","","",""
"null","digits/four.wav","","audio-keyboard-response","129","327484","0.0-0.0-1.11-0.11-1.94-0.94","auditory","A02F50","null","","","","","","","","",""
"null","digits/one.wav","","audio-keyboard-response","130","328604","0.0-0.0-1.11-0.11-1.95-0.95","auditory","A02F50","null","","","","","","","","",""
"null","digits/three.wav","","audio-keyboard-response","131","329604","0.0-0.0-1.11-0.11-1.96-0.96","auditory","A02F50","null","","","","","","","","",""
"null","digits/seven.wav","","audio-keyboard-response","132","330674","0.0-0.0-1.11-0.11-1.97-0.97","auditory","A02F50","null","","","","","","","","",""
"null","digits/three.wav","","audio-keyboard-response","133","331684","0.0-0.0-1.11-0.11-1.98-0.98","auditory","A02F50","null","","","","","","","","",""
"null","digits/eight.wav","","audio-keyboard-response","134","332564","0.0-0.0-1.11-0.11-1.99-0.99","auditory","A02F50","null","","","","","","","","",""
"null","digits/two.wav","","audio-keyboard-response","135","333614","0.0-0.0-1.11-0.11-1.100-0.100","auditory","A02F50","null","","","","","","","","",""
"null","digits/four.wav","","audio-keyboard-response","136","334634","0.0-0.0-1.11-0.11-1.101-0.101","auditory","A02F50","null","","","","","","","","",""
"27828","<div class = numbox><p>Wie lauteten die Zahlen <b>in umgekehrter Reihenfolge</b>?<br> Antwort mit Enter-Taste best&auml;tigen.</p><button id = button_1 class = ""square num-button"" onclick = ""recordClick(this)""><div class = content><div class = numbers>1</div></div></button><button id = button_2 class = ""square num-button"" onclick = ""recordClick(this)""><div class = content><div class = numbers>2</div></div></button><button id = button_3 class = ""square num-button"" onclick = ""recordClick(this)""><div class = content><div class = numbers>3</div></div></button><button id = button_4 class = ""square num-button"" onclick = ""recordClick(this)""><div class = content><div class = numbers>4</div></div></button><button id = button_5 class = ""square num-button"" onclick = ""recordClick(this)""><div class = content><div class = numbers>5</div></div></button><button id = button_6 class = ""square num-button"" onclick = ""recordClick(this)""><div class = content><div class = numbers>6</div></div></button><button id = button_7 class = ""square num-button"" onclick = ""recordClick(this)""><div class = content><div class = numbers>7</div></div></button><button id = button_8 class = ""square num-button"" onclick = ""recordClick(this)""><div class = content><div class = numbers>8</div></div></button><button id = button_9 class = ""square num-button"" onclick = ""recordClick(this)""><div class = content><div class = numbers>9</div></div></button><button class = clear_button id = ""ClearButton"" onclick = ""clearResponse()"">L&ouml;schen</button><p><u><b>Ihre Antwort:</b></u></p><div id=echoed_txt style=""font-size: 30px; color:blue;""><b></b></div></div>","","html-keyboard-response","137","362714","0.0-0.0-1.11-0.11-2.11","auditory","A02F50","13","BDS-RESPONSE","14","4,2,8,3,7,3,1,4,9,6,2,8,7,5","4,2,8,3,7,3,1,4,9,6,2,8,7,5","1","3,4,5,6,7,8,9,10,11,12,13,14","13","11",""
"","","","call-function","138","362714","0.0-0.0-1.11-0.11-3.11","auditory","A02F50","","","","","","","","","",""
"2663","<p>Die Aufgabe ist erledigt! Vielen Dank!</p><p>Die Gesamtzahl Ihrer korrekten Antworten ist <b>12</b>.</p>","0","html-button-response","139","365382","0.0-1.0","auditory","A02F50","","","","","","","","","",""
