"rt","stimulus","button_pressed","trial_type","trial_index","time_elapsed","internal_node_id","BDS_modality","subject","key_press","designation","span","answer","correct","was_correct","spanHistory","max_span","total_correct","value"
"5231","<p>Willkommen bei der <b>Ziffernspannen-Aufgabe.</b></p><p>Bei jedem Versuch h&ouml;ren Sie eine Ziffernfolge und sollen diese in umgekehrter Reihenfolge wiedergeben.</p><p>Zum Beispiel, falls sie die Zahlen <b style=""color:blue;"">Eins</b>, <b style=""color:blue;"">Zwei</b>, <b style=""color:blue;"">Drei</b>, geh&ouml;rt haben, dann antworten Sie mit <b style=""color:blue;"">3</b>, <b style=""color:blue;"">2</b>, <b style=""color:blue;"">1</b></p><p>Um eine hohe Qualit&auml;t der Daten zu gew&auml;hrleisten, ist es sehr wichtig, dass Sie keine Ged&auml;chtnisst&uuml;tze (z.B. Stift und Papier) verwenden.<br>Bitte bearbeiten Sie die Aufgabe ausschlie&#223;lich im Kopf.</p><p>Es werden insgesamt 12 Durchl&auml;ufe gemacht. Die Teilname dauert etwa 10 Minuten. Am Ende sehen sie Ihre erreichte Punktzahl.</p>","0","html-button-response","0","5233","0.0-0.0-0.0","auditory","A02F50","","","","","","","","","",""
"1314","<p>Test 1 von 12</p>","0","html-button-response","1","6550","0.0-0.0-1.0-0.0-0.0","auditory","A02F50","","","","","","","","","",""
"null","digits/two.wav","","audio-keyboard-response","2","7907","0.0-0.0-1.0-0.0-1.0-0.0","auditory","A02F50","null","","","","","","","","",""
"null","digits/five.wav","","audio-keyboard-response","3","8947","0.0-0.0-1.0-0.0-1.1-0.1","auditory","A02F50","null","","","","","","","","",""
"null","digits/eight.wav","","audio-keyboard-response","4","9826","0.0-0.0-1.0-0.0-1.2-0.2","auditory","A02F50","null","","","","","","","","",""
"5576","<div class = numbox><p>Wie lauteten die Zahlen <b>in umgekehrter Reihenfolge</b>?<br> Antwort mit Enter-Taste best&auml;tigen.</p><button id = button_1 class = ""square num-button"" onclick = ""recordClick(this)""><div class = content><div class = numbers>1</div></div></button><button id = button_2 class = ""square num-button"" onclick = ""recordClick(this)""><div class = content><div class = numbers>2</div></div></button><button id = button_3 class = ""square num-button"" onclick = ""recordClick(this)""><div class = content><div class = numbers>3</div></div></button><button id = button_4 class = ""square num-button"" onclick = ""recordClick(this)""><div class = content><div class = numbers>4</div></div></button><button id = button_5 class = ""square num-button"" onclick = ""recordClick(this)""><div class = content><div class = numbers>5</div></div></button><button id = button_6 class = ""square num-button"" onclick = ""recordClick(this)""><div class = content><div class = numbers>6</div></div></button><button id = button_7 class = ""square num-button"" onclick = ""recordClick(this)""><div class = content><div class = numbers>7</div></div></button><button id = button_8 class = ""square num-button"" onclick = ""recordClick(this)""><div class = content><div class = numbers>8</div></div></button><button id = button_9 class = ""square num-button"" onclick = ""recordClick(this)""><div class = content><div class = numbers>9</div></div></button><button class = clear_button id = ""ClearButton"" onclick = ""clearResponse()"">L&ouml;schen</button><p><u><b>Ihre Antwort:</b></u></p><div id=echoed_txt style=""font-size: 30px; color:blue;""><b></b></div></div>","","html-keyboard-response","5","15655","0.0-0.0-1.0-0.0-2.0","auditory","A02F50","13","BDS-RESPONSE","3","8,5,2","8,5,2","1","3,4,5,6,7,7,8,9,9,8,9,9","0","0",""
"","","","call-function","6","15656","0.0-0.0-1.0-0.0-3.0","auditory","A02F50","","","","","","","","","",""
"1570","<p>Test 2 von 12</p>","0","html-button-response","7","17227","0.0-0.0-1.1-0.1-0.1","auditory","A02F50","","","","","","","","","",""
"null","digits/four.wav","","audio-keyboard-response","8","18497","0.0-0.0-1.1-0.1-1.3-0.3","auditory","A02F50","null","","","","","","","","",""
"null","digits/one.wav","","audio-keyboard-response","9","19627","0.0-0.0-1.1-0.1-1.4-0.4","auditory","A02F50","null","","","","","","","","",""
"null","digits/two.wav","","audio-keyboard-response","10","20676","0.0-0.0-1.1-0.1-1.5-0.5","auditory","A02F50","null","","","","","","","","",""
"null","digits/six.wav","","audio-keyboard-response","11","21727","0.0-0.0-1.1-0.1-1.6-0.6","auditory","A02F50","null","","","","","","","","",""
"6941","<div class = numbox><p>Wie lauteten die Zahlen <b>in umgekehrter Reihenfolge</b>?<br> Antwort mit Enter-Taste best&auml;tigen.</p><button id = button_1 class = ""square num-button"" onclick = ""recordClick(this)""><div class = content><div class = numbers>1</div></div></button><button id = button_2 class = ""square num-button"" onclick = ""recordClick(this)""><div class = content><div class = numbers>2</div></div></button><button id = button_3 class = ""square num-button"" onclick = ""recordClick(this)""><div class = content><div class = numbers>3</div></div></button><button id = button_4 class = ""square num-button"" onclick = ""recordClick(this)""><div class = content><div class = numbers>4</div></div></button><button id = button_5 class = ""square num-button"" onclick = ""recordClick(this)""><div class = content><div class = numbers>5</div></div></button><button id = button_6 class = ""square num-button"" onclick = ""recordClick(this)""><div class = content><div class = numbers>6</div></div></button><button id = button_7 class = ""square num-button"" onclick = ""recordClick(this)""><div class = content><div class = numbers>7</div></div></button><button id = button_8 class = ""square num-button"" onclick = ""recordClick(this)""><div class = content><div class = numbers>8</div></div></button><button id = button_9 class = ""square num-button"" onclick = ""recordClick(this)""><div class = content><div class = numbers>9</div></div></button><button class = clear_button id = ""ClearButton"" onclick = ""clearResponse()"">L&ouml;schen</button><p><u><b>Ihre Antwort:</b></u></p><div id=echoed_txt style=""font-size: 30px; color:blue;""><b></b></div></div>","","html-keyboard-response","12","28920","0.0-0.0-1.1-0.1-2.1","auditory","A02F50","13","BDS-RESPONSE","4","6,2,1,4","6,2,1,4","1","3,4,5,6,7,7,8,9,9,8,9,9","3","1",""
"","","","call-function","13","28920","0.0-0.0-1.1-0.1-3.1","auditory","A02F50","","","","","","","","","",""
"2137","<p>Test 3 von 12</p>","0","html-button-response","14","31058","0.0-0.0-1.2-0.2-0.2","auditory","A02F50","","","","","","","","","",""
"null","digits/eight.wav","","audio-keyboard-response","15","32186","0.0-0.0-1.2-0.2-1.7-0.7","auditory","A02F50","null","","","","","","","","",""
"null","digits/two.wav","","audio-keyboard-response","16","33236","0.0-0.0-1.2-0.2-1.8-0.8","auditory","A02F50","null","","","","","","","","",""
"null","digits/six.wav","","audio-keyboard-response","17","34286","0.0-0.0-1.2-0.2-1.9-0.9","auditory","A02F50","null","","","","","","","","",""
"null","digits/three.wav","","audio-keyboard-response","18","35286","0.0-0.0-1.2-0.2-1.10-0.10","auditory","A02F50","null","","","","","","","","",""
"null","digits/four.wav","","audio-keyboard-response","19","36306","0.0-0.0-1.2-0.2-1.11-0.11","auditory","A02F50","null","","","","","","","","",""
"11268","<div class = numbox><p>Wie lauteten die Zahlen <b>in umgekehrter Reihenfolge</b>?<br> Antwort mit Enter-Taste best&auml;tigen.</p><button id = button_1 class = ""square num-button"" onclick = ""recordClick(this)""><div class = content><div class = numbers>1</div></div></button><button id = button_2 class = ""square num-button"" onclick = ""recordClick(this)""><div class = content><div class = numbers>2</div></div></button><button id = button_3 class = ""square num-button"" onclick = ""recordClick(this)""><div class = content><div class = numbers>3</div></div></button><button id = button_4 class = ""square num-button"" onclick = ""recordClick(this)""><div class = content><div class = numbers>4</div></div></button><button id = button_5 class = ""square num-button"" onclick = ""recordClick(this)""><div class = content><div class = numbers>5</div></div></button><button id = button_6 class = ""square num-button"" onclick = ""recordClick(this)""><div class = content><div class = numbers>6</div></div></button><button id = button_7 class = ""square num-button"" onclick = ""recordClick(this)""><div class = content><div class = numbers>7</div></div></button><button id = button_8 class = ""square num-button"" onclick = ""recordClick(this)""><div class = content><div class = numbers>8</div></div></button><button id = button_9 class = ""square num-button"" onclick = ""recordClick(this)""><div class = content><div class = numbers>9</div></div></button><button class = clear_button id = ""ClearButton"" onclick = ""clearResponse()"">L&ouml;schen</button><p><u><b>Ihre Antwort:</b></u></p><div id=echoed_txt style=""font-size: 30px; color:blue;""><b></b></div></div>","","html-keyboard-response","20","47826","0.0-0.0-1.2-0.2-2.2","auditory","A02F50","13","BDS-RESPONSE","5","4,3,6,2,8","4,3,6,2,8","1","3,4,5,6,7,7,8,9,9,8,9,9","4","2",""
"","","","call-function","21","47827","0.0-0.0-1.2-0.2-3.2","auditory","A02F50","","","","","","","","","",""
"3681","<p>Test 4 von 12</p>","0","html-button-response","22","51508","0.0-0.0-1.3-0.3-0.3","auditory","A02F50","","","","","","","","","",""
"null","digits/two.wav","","audio-keyboard-response","23","52806","0.0-0.0-1.3-0.3-1.12-0.12","auditory","A02F50","null","","","","","","","","",""
"null","digits/five.wav","","audio-keyboard-response","24","53846","0.0-0.0-1.3-0.3-1.13-0.13","auditory","A02F50","null","","","","","","","","",""
"null","digits/one.wav","","audio-keyboard-response","25","54965","0.0-0.0-1.3-0.3-1.14-0.14","auditory","A02F50","null","","","","","","","","",""
"null","digits/eight.wav","","audio-keyboard-response","26","55846","0.0-0.0-1.3-0.3-1.15-0.15","auditory","A02F50","null","","","","","","","","",""
"null","digits/four.wav","","audio-keyboard-response","27","56866","0.0-0.0-1.3-0.3-1.16-0.16","auditory","A02F50","null","","","","","","","","",""
"null","digits/seven.wav","","audio-keyboard-response","28","57945","0.0-0.0-1.3-0.3-1.17-0.17","auditory","A02F50","null","","","","","","","","",""
"15962","<div class = numbox><p>Wie lauteten die Zahlen <b>in umgekehrter Reihenfolge</b>?<br> Antwort mit Enter-Taste best&auml;tigen.</p><button id = button_1 class = ""square num-button"" onclick = ""recordClick(this)""><div class = content><div class = numbers>1</div></div></button><button id = button_2 class = ""square num-button"" onclick = ""recordClick(this)""><div class = content><div class = numbers>2</div></div></button><button id = button_3 class = ""square num-button"" onclick = ""recordClick(this)""><div class = content><div class = numbers>3</div></div></button><button id = button_4 class = ""square num-button"" onclick = ""recordClick(this)""><div class = content><div class = numbers>4</div></div></button><button id = button_5 class = ""square num-button"" onclick = ""recordClick(this)""><div class = content><div class = numbers>5</div></div></button><button id = button_6 class = ""square num-button"" onclick = ""recordClick(this)""><div class = content><div class = numbers>6</div></div></button><button id = button_7 class = ""square num-button"" onclick = ""recordClick(this)""><div class = content><div class = numbers>7</div></div></button><button id = button_8 class = ""square num-button"" onclick = ""recordClick(this)""><div class = content><div class = numbers>8</div></div></button><button id = button_9 class = ""square num-button"" onclick = ""recordClick(this)""><div class = content><div class = numbers>9</div></div></button><button class = clear_button id = ""ClearButton"" onclick = ""clearResponse()"">L&ouml;schen</button><p><u><b>Ihre Antwort:</b></u></p><div id=echoed_txt style=""font-size: 30px; color:blue;""><b></b></div></div>","","html-keyboard-response","29","74159","0.0-0.0-1.3-0.3-2.3","auditory","A02F50","13","BDS-RESPONSE","6","7,4,8,1,5,2","7,4,8,1,5,2","1","3,4,5,6,7,7,8,9,9,8,9,9","5","3",""
"","","","call-function","30","74160","0.0-0.0-1.3-0.3-3.3","auditory","A02F50","","","","","","","","","",""
"4987","<p>Test 5 von 12</p>","0","html-button-response","31","79147","0.0-0.0-1.4-0.4-0.4","auditory","A02F50","","","","","","","","","",""
"null","digits/six.wav","","audio-keyboard-response","32","80446","0.0-0.0-1.4-0.4-1.18-0.18","auditory","A02F50","null","","","","","","","","",""
"null","digits/two.wav","","audio-keyboard-response","33","81496","0.0-0.0-1.4-0.4-1.19-0.19","auditory","A02F50","null","","","","","","","","",""
"null","digits/one.wav","","audio-keyboard-response","34","82626","0.0-0.0-1.4-0.4-1.20-0.20","auditory","A02F50","null","","","","","","","","",""
"null","digits/seven.wav","","audio-keyboard-response","35","83706","0.0-0.0-1.4-0.4-1.21-0.21","auditory","A02F50","null","","","","","","","","",""
"null","digits/three.wav","","audio-keyboard-response","36","84716","0.0-0.0-1.4-0.4-1.22-0.22","auditory","A02F50","null","","","","","","","","",""
"null","digits/eight.wav","","audio-keyboard-response","37","85596","0.0-0.0-1.4-0.4-1.23-0.23","auditory","A02F50","null","","","","","","","","",""
"null","digits/five.wav","","audio-keyboard-response","38","86636","0.0-0.0-1.4-0.4-1.24-0.24","auditory","A02F50","null","","","","","","","","",""
"22604","<div class = numbox><p>Wie lauteten die Zahlen <b>in umgekehrter Reihenfolge</b>?<br> Antwort mit Enter-Taste best&auml;tigen.</p><button id = button_1 class = ""square num-button"" onclick = ""recordClick(this)""><div class = content><div class = numbers>1</div></div></button><button id = button_2 class = ""square num-button"" onclick = ""recordClick(this)""><div class = content><div class = numbers>2</div></div></button><button id = button_3 class = ""square num-button"" onclick = ""recordClick(this)""><div class = content><div class = numbers>3</div></div></button><button id = button_4 class = ""square num-button"" onclick = ""recordClick(this)""><div class = content><div class = numbers>4</div></div></button><button id = button_5 class = ""square num-button"" onclick = ""recordClick(this)""><div class = content><div class = numbers>5</div></div></button><button id = button_6 class = ""square num-button"" onclick = ""recordClick(this)""><div class = content><div class = numbers>6</div></div></button><button id = button_7 class = ""square num-button"" onclick = ""recordClick(this)""><div class = content><div class = numbers>7</div></div></button><button id = button_8 class = ""square num-button"" onclick = ""recordClick(this)""><div class = content><div class = numbers>8</div></div></button><button id = button_9 class = ""square num-button"" onclick = ""recordClick(this)""><div class = content><div class = numbers>9</div></div></button><button class = clear_button id = ""ClearButton"" onclick = ""clearResponse()"">L&ouml;schen</button><p><u><b>Ihre Antwort:</b></u></p><div id=echoed_txt style=""font-size: 30px; color:blue;""><b></b></div></div>","","html-keyboard-response","39","109492","0.0-0.0-1.4-0.4-2.4","auditory","A02F50","13","BDS-RESPONSE","7","5,3,8,7,1,2,6","5,8,3,7,1,2,6","0","3,4,5,6,7,7,8,9,9,8,9,9","6","4",""
"","","","call-function","40","109492","0.0-0.0-1.4-0.4-3.4","auditory","A02F50","","","","","","","","","",""
"5269","<p>Test 6 von 12</p>","0","html-button-response","41","114762","0.0-0.0-1.5-0.5-0.5","auditory","A02F50","","","","","","","","","",""
"null","digits/nine.wav","","audio-keyboard-response","42","115936","0.0-0.0-1.5-0.5-1.25-0.25","auditory","A02F50","null","","","","","","","","",""
"null","digits/one.wav","","audio-keyboard-response","43","117066","0.0-0.0-1.5-0.5-1.26-0.26","auditory","A02F50","null","","","","","","","","",""
"null","digits/six.wav","","audio-keyboard-response","44","118116","0.0-0.0-1.5-0.5-1.27-0.27","auditory","A02F50","null","","","","","","","","",""
"null","digits/eight.wav","","audio-keyboard-response","45","118996","0.0-0.0-1.5-0.5-1.28-0.28","auditory","A02F50","null","","","","","","","","",""
"null","digits/two.wav","","audio-keyboard-response","46","120046","0.0-0.0-1.5-0.5-1.29-0.29","auditory","A02F50","null","","","","","","","","",""
"null","digits/four.wav","","audio-keyboard-response","47","121065","0.0-0.0-1.5-0.5-1.30-0.30","auditory","A02F50","null","","","","","","","","",""
"null","digits/seven.wav","","audio-keyboard-response","48","122146","0.0-0.0-1.5-0.5-1.31-0.31","auditory","A02F50","null","","","","","","","","",""
"16685","<div class = numbox><p>Wie lauteten die Zahlen <b>in umgekehrter Reihenfolge</b>?<br> Antwort mit Enter-Taste best&auml;tigen.</p><button id = button_1 class = ""square num-button"" onclick = ""recordClick(this)""><div class = content><div class = numbers>1</div></div></button><button id = button_2 class = ""square num-button"" onclick = ""recordClick(this)""><div class = content><div class = numbers>2</div></div></button><button id = button_3 class = ""square num-button"" onclick = ""recordClick(this)""><div class = content><div class = numbers>3</div></div></button><button id = button_4 class = ""square num-button"" onclick = ""recordClick(this)""><div class = content><div class = numbers>4</div></div></button><button id = button_5 class = ""square num-button"" onclick = ""recordClick(this)""><div class = content><div class = numbers>5</div></div></button><button id = button_6 class = ""square num-button"" onclick = ""recordClick(this)""><div class = content><div class = numbers>6</div></div></button><button id = button_7 class = ""square num-button"" onclick = ""recordClick(this)""><div class = content><div class = numbers>7</div></div></button><button id = button_8 class = ""square num-button"" onclick = ""recordClick(this)""><div class = content><div class = numbers>8</div></div></button><button id = button_9 class = ""square num-button"" onclick = ""recordClick(this)""><div class = content><div class = numbers>9</div></div></button><button class = clear_button id = ""ClearButton"" onclick = ""clearResponse()"">L&ouml;schen</button><p><u><b>Ihre Antwort:</b></u></p><div id=echoed_txt style=""font-size: 30px; color:blue;""><b></b></div></div>","","html-keyboard-response","49","139082","0.0-0.0-1.5-0.5-2.5","auditory","A02F50","13","BDS-RESPONSE","7","7,4,2,8,6,1,9","7,4,2,8,6,1,9","1","3,4,5,6,7,7,8,9,9,8,9,9","6","4",""
"","","","call-function","50","139082","0.0-0.0-1.5-0.5-3.5","auditory","A02F50","","","","","","","","","",""
"4656","<p>Test 7 von 12</p>","0","html-button-response","51","143740","0.0-0.0-1.6-0.6-0.6","auditory","A02F50","","","","","","","","","",""
"null","digits/seven.wav","","audio-keyboard-response","52","145066","0.0-0.0-1.6-0.6-1.32-0.32","auditory","A02F50","null","","","","","","","","",""
"null","digits/four.wav","","audio-keyboard-response","53","146086","0.0-0.0-1.6-0.6-1.33-0.33","auditory","A02F50","null","","","","","","","","",""
"null","digits/two.wav","","audio-keyboard-response","54","147137","0.0-0.0-1.6-0.6-1.34-0.34","auditory","A02F50","null","","","","","","","","",""
"null","digits/one.wav","","audio-keyboard-response","55","148266","0.0-0.0-1.6-0.6-1.35-0.35","auditory","A02F50","null","","","","","","","","",""
"null","digits/five.wav","","audio-keyboard-response","56","149306","0.0-0.0-1.6-0.6-1.36-0.36","auditory","A02F50","null","","","","","","","","",""
"null","digits/eight.wav","","audio-keyboard-response","57","150186","0.0-0.0-1.6-0.6-1.37-0.37","auditory","A02F50","null","","","","","","","","",""
"null","digits/nine.wav","","audio-keyboard-response","58","151116","0.0-0.0-1.6-0.6-1.38-0.38","auditory","A02F50","null","","","","","","","","",""
"null","digits/three.wav","","audio-keyboard-response","59","152126","0.0-0.0-1.6-0.6-1.39-0.39","auditory","A02F50","null","","","","","","","","",""
"21388","<div class = numbox><p>Wie lauteten die Zahlen <b>in umgekehrter Reihenfolge</b>?<br> Antwort mit Enter-Taste best&auml;tigen.</p><button id = button_1 class = ""square num-button"" onclick = ""recordClick(this)""><div class = content><div class = numbers>1</div></div></button><button id = button_2 class = ""square num-button"" onclick = ""recordClick(this)""><div class = content><div class = numbers>2</div></div></button><button id = button_3 class = ""square num-button"" onclick = ""recordClick(this)""><div class = content><div class = numbers>3</div></div></button><button id = button_4 class = ""square num-button"" onclick = ""recordClick(this)""><div class = content><div class = numbers>4</div></div></button><button id = button_5 class = ""square num-button"" onclick = ""recordClick(this)""><div class = content><div class = numbers>5</div></div></button><button id = button_6 class = ""square num-button"" onclick = ""recordClick(this)""><div class = content><div class = numbers>6</div></div></button><button id = button_7 class = ""square num-button"" onclick = ""recordClick(this)""><div class = content><div class = numbers>7</div></div></button><button id = button_8 class = ""square num-button"" onclick = ""recordClick(this)""><div class = content><div class = numbers>8</div></div></button><button id = button_9 class = ""square num-button"" onclick = ""recordClick(this)""><div class = content><div class = numbers>9</div></div></button><button class = clear_button id = ""ClearButton"" onclick = ""clearResponse()"">L&ouml;schen</button><p><u><b>Ihre Antwort:</b></u></p><div id=echoed_txt style=""font-size: 30px; color:blue;""><b></b></div></div>","","html-keyboard-response","60","173766","0.0-0.0-1.6-0.6-2.6","auditory","A02F50","13","BDS-RESPONSE","8","3,9,8,5,1,2,4,7","3,9,8,5,1,2,4,7","1","3,4,5,6,7,7,8,9,9,8,9,9","7","5",""
"","","","call-function","61","173766","0.0-0.0-1.6-0.6-3.6","auditory","A02F50","","","","","","","","","",""
"2192","<p>Test 8 von 12</p>","0","html-button-response","62","175959","0.0-0.0-1.7-0.7-0.7","auditory","A02F50","","","","","","","","","",""
"null","digits/seven.wav","","audio-keyboard-response","63","177276","0.0-0.0-1.7-0.7-1.40-0.40","auditory","A02F50","null","","","","","","","","",""
"null","digits/one.wav","","audio-keyboard-response","64","178406","0.0-0.0-1.7-0.7-1.41-0.41","auditory","A02F50","null","","","","","","","","",""
"null","digits/three.wav","","audio-keyboard-response","65","179406","0.0-0.0-1.7-0.7-1.42-0.42","auditory","A02F50","null","","","","","","","","",""
"null","digits/two.wav","","audio-keyboard-response","66","180456","0.0-0.0-1.7-0.7-1.43-0.43","auditory","A02F50","null","","","","","","","","",""
"null","digits/four.wav","","audio-keyboard-response","67","181476","0.0-0.0-1.7-0.7-1.44-0.44","auditory","A02F50","null","","","","","","","","",""
"null","digits/eight.wav","","audio-keyboard-response","68","182356","0.0-0.0-1.7-0.7-1.45-0.45","auditory","A02F50","null","","","","","","","","",""
"null","digits/nine.wav","","audio-keyboard-response","69","183286","0.0-0.0-1.7-0.7-1.46-0.46","auditory","A02F50","null","","","","","","","","",""
"null","digits/six.wav","","audio-keyboard-response","70","184336","0.0-0.0-1.7-0.7-1.47-0.47","auditory","A02F50","null","","","","","","","","",""
"null","digits/five.wav","","audio-keyboard-response","71","185376","0.0-0.0-1.7-0.7-1.48-0.48","auditory","A02F50","null","","","","","","","","",""
"26487","<div class = numbox><p>Wie lauteten die Zahlen <b>in umgekehrter Reihenfolge</b>?<br> Antwort mit Enter-Taste best&auml;tigen.</p><button id = button_1 class = ""square num-button"" onclick = ""recordClick(this)""><div class = content><div class = numbers>1</div></div></button><button id = button_2 class = ""square num-button"" onclick = ""recordClick(this)""><div class = content><div class = numbers>2</div></div></button><button id = button_3 class = ""square num-button"" onclick = ""recordClick(this)""><div class = content><div class = numbers>3</div></div></button><button id = button_4 class = ""square num-button"" onclick = ""recordClick(this)""><div class = content><div class = numbers>4</div></div></button><button id = button_5 class = ""square num-button"" onclick = ""recordClick(this)""><div class = content><div class = numbers>5</div></div></button><button id = button_6 class = ""square num-button"" onclick = ""recordClick(this)""><div class = content><div class = numbers>6</div></div></button><button id = button_7 class = ""square num-button"" onclick = ""recordClick(this)""><div class = content><div class = numbers>7</div></div></button><button id = button_8 class = ""square num-button"" onclick = ""recordClick(this)""><div class = content><div class = numbers>8</div></div></button><button id = button_9 class = ""square num-button"" onclick = ""recordClick(this)""><div class = content><div class = numbers>9</div></div></button><button class = clear_button id = ""ClearButton"" onclick = ""clearResponse()"">L&ouml;schen</button><p><u><b>Ihre Antwort:</b></u></p><div id=echoed_txt style=""font-size: 30px; color:blue;""><b></b></div></div>","","html-keyboard-response","72","212116","0.0-0.0-1.7-0.7-2.7","auditory","A02F50","13","BDS-RESPONSE","9","5,6,9,4,8,1,3,7","5,6,9,8,4,2,3,1,7","0","3,4,5,6,7,7,8,9,9,8,9,9","8","6",""
"","","","call-function","73","212117","0.0-0.0-1.7-0.7-3.7","auditory","A02F50","","","","","","","","","",""
"4840","<p>Test 9 von 12</p>","0","html-button-response","74","216958","0.0-0.0-1.8-0.8-0.8","auditory","A02F50","","","","","","","","","",""
"null","digits/six.wav","","audio-keyboard-response","75","218245","0.0-0.0-1.8-0.8-1.49-0.49","auditory","A02F50","null","","","","","","","","",""
"null","digits/nine.wav","","audio-keyboard-response","76","219176","0.0-0.0-1.8-0.8-1.50-0.50","auditory","A02F50","null","","","","","","","","",""
"null","digits/seven.wav","","audio-keyboard-response","77","220255","0.0-0.0-1.8-0.8-1.51-0.51","auditory","A02F50","null","","","","","","","","",""
"null","digits/one.wav","","audio-keyboard-response","78","221385","0.0-0.0-1.8-0.8-1.52-0.52","auditory","A02F50","null","","","","","","","","",""
"null","digits/two.wav","","audio-keyboard-response","79","222435","0.0-0.0-1.8-0.8-1.53-0.53","auditory","A02F50","null","","","","","","","","",""
"null","digits/eight.wav","","audio-keyboard-response","80","223316","0.0-0.0-1.8-0.8-1.54-0.54","auditory","A02F50","null","","","","","","","","",""
"null","digits/four.wav","","audio-keyboard-response","81","224335","0.0-0.0-1.8-0.8-1.55-0.55","auditory","A02F50","null","","","","","","","","",""
"null","digits/three.wav","","audio-keyboard-response","82","225346","0.0-0.0-1.8-0.8-1.56-0.56","auditory","A02F50","null","","","","","","","","",""
"null","digits/five.wav","","audio-keyboard-response","83","226385","0.0-0.0-1.8-0.8-1.57-0.57","auditory","A02F50","null","","","","","","","","",""
"31003","<div class = numbox><p>Wie lauteten die Zahlen <b>in umgekehrter Reihenfolge</b>?<br> Antwort mit Enter-Taste best&auml;tigen.</p><button id = button_1 class = ""square num-button"" onclick = ""recordClick(this)""><div class = content><div class = numbers>1</div></div></button><button id = button_2 class = ""square num-button"" onclick = ""recordClick(this)""><div class = content><div class = numbers>2</div></div></button><button id = button_3 class = ""square num-button"" onclick = ""recordClick(this)""><div class = content><div class = numbers>3</div></div></button><button id = button_4 class = ""square num-button"" onclick = ""recordClick(this)""><div class = content><div class = numbers>4</div></div></button><button id = button_5 class = ""square num-button"" onclick = ""recordClick(this)""><div class = content><div class = numbers>5</div></div></button><button id = button_6 class = ""square num-button"" onclick = ""recordClick(this)""><div class = content><div class = numbers>6</div></div></button><button id = button_7 class = ""square num-button"" onclick = ""recordClick(this)""><div class = content><div class = numbers>7</div></div></button><button id = button_8 class = ""square num-button"" onclick = ""recordClick(this)""><div class = content><div class = numbers>8</div></div></button><button id = button_9 class = ""square num-button"" onclick = ""recordClick(this)""><div class = content><div class = numbers>9</div></div></button><button class = clear_button id = ""ClearButton"" onclick = ""clearResponse()"">L&ouml;schen</button><p><u><b>Ihre Antwort:</b></u></p><div id=echoed_txt style=""font-size: 30px; color:blue;""><b></b></div></div>","","html-keyboard-response","84","257641","0.0-0.0-1.8-0.8-2.8","auditory","A02F50","13","BDS-RESPONSE","9","5,3,8,4,2,1,7,9","5,3,4,8,2,1,7,9,6","0","3,4,5,6,7,7,8,9,9,8,9,9","8","6",""
"","","","call-function","85","257641","0.0-0.0-1.8-0.8-3.8","auditory","A02F50","","","","","","","","","",""
"4099","<p>Test 10 von 12</p>","0","html-button-response","86","261740","0.0-0.0-1.9-0.9-0.9","auditory","A02F50","","","","","","","","","",""
"null","digits/eight.wav","","audio-keyboard-response","87","262924","0.0-0.0-1.9-0.9-1.58-0.58","auditory","A02F50","null","","","","","","","","",""
"null","digits/five.wav","","audio-keyboard-response","88","263964","0.0-0.0-1.9-0.9-1.59-0.59","auditory","A02F50","null","","","","","","","","",""
"null","digits/three.wav","","audio-keyboard-response","89","264975","0.0-0.0-1.9-0.9-1.60-0.60","auditory","A02F50","null","","","","","","","","",""
"null","digits/one.wav","","audio-keyboard-response","90","266105","0.0-0.0-1.9-0.9-1.61-0.61","auditory","A02F50","null","","","","","","","","",""
"null","digits/four.wav","","audio-keyboard-response","91","267124","0.0-0.0-1.9-0.9-1.62-0.62","auditory","A02F50","null","","","","","","","","",""
"null","digits/nine.wav","","audio-keyboard-response","92","268054","0.0-0.0-1.9-0.9-1.63-0.63","auditory","A02F50","null","","","","","","","","",""
"null","digits/two.wav","","audio-keyboard-response","93","269104","0.0-0.0-1.9-0.9-1.64-0.64","auditory","A02F50","null","","","","","","","","",""
"null","digits/seven.wav","","audio-keyboard-response","94","270184","0.0-0.0-1.9-0.9-1.65-0.65","auditory","A02F50","null","","","","","","","","",""
"18882","<div class = numbox><p>Wie lauteten die Zahlen <b>in umgekehrter Reihenfolge</b>?<br> Antwort mit Enter-Taste best&auml;tigen.</p><button id = button_1 class = ""square num-button"" onclick = ""recordClick(this)""><div class = content><div class = numbers>1</div></div></button><button id = button_2 class = ""square num-button"" onclick = ""recordClick(this)""><div class = content><div class = numbers>2</div></div></button><button id = button_3 class = ""square num-button"" onclick = ""recordClick(this)""><div class = content><div class = numbers>3</div></div></button><button id = button_4 class = ""square num-button"" onclick = ""recordClick(this)""><div class = content><div class = numbers>4</div></div></button><button id = button_5 class = ""square num-button"" onclick = ""recordClick(this)""><div class = content><div class = numbers>5</div></div></button><button id = button_6 class = ""square num-button"" onclick = ""recordClick(this)""><div class = content><div class = numbers>6</div></div></button><button id = button_7 class = ""square num-button"" onclick = ""recordClick(this)""><div class = content><div class = numbers>7</div></div></button><button id = button_8 class = ""square num-button"" onclick = ""recordClick(this)""><div class = content><div class = numbers>8</div></div></button><button id = button_9 class = ""square num-button"" onclick = ""recordClick(this)""><div class = content><div class = numbers>9</div></div></button><button class = clear_button id = ""ClearButton"" onclick = ""clearResponse()"">L&ouml;schen</button><p><u><b>Ihre Antwort:</b></u></p><div id=echoed_txt style=""font-size: 30px; color:blue;""><b></b></div></div>","","html-keyboard-response","95","289319","0.0-0.0-1.9-0.9-2.9","auditory","A02F50","13","BDS-RESPONSE","8","7,2,9,4,1,3,5,8","7,2,9,4,1,3,5,8","1","3,4,5,6,7,7,8,9,9,8,9,9","8","6",""
"","","","call-function","96","289319","0.0-0.0-1.9-0.9-3.9","auditory","A02F50","","","","","","","","","",""
"2674","<p>Test 11 von 12</p>","0","html-button-response","97","291995","0.0-0.0-1.10-0.10-0.10","auditory","A02F50","","","","","","","","","",""
"null","digits/four.wav","","audio-keyboard-response","98","293264","0.0-0.0-1.10-0.10-1.66-0.66","auditory","A02F50","null","","","","","","","","",""
"null","digits/nine.wav","","audio-keyboard-response","99","294195","0.0-0.0-1.10-0.10-1.67-0.67","auditory","A02F50","null","","","","","","","","",""
"null","digits/seven.wav","","audio-keyboard-response","100","295265","0.0-0.0-1.10-0.10-1.68-0.68","auditory","A02F50","null","","","","","","","","",""
"null","digits/three.wav","","audio-keyboard-response","101","296275","0.0-0.0-1.10-0.10-1.69-0.69","auditory","A02F50","null","","","","","","","","",""
"null","digits/six.wav","","audio-keyboard-response","102","297324","0.0-0.0-1.10-0.10-1.70-0.70","auditory","A02F50","null","","","","","","","","",""
"null","digits/one.wav","","audio-keyboard-response","103","298455","0.0-0.0-1.10-0.10-1.71-0.71","auditory","A02F50","null","","","","","","","","",""
"null","digits/two.wav","","audio-keyboard-response","104","299505","0.0-0.0-1.10-0.10-1.72-0.72","auditory","A02F50","null","","","","","","","","",""
"null","digits/five.wav","","audio-keyboard-response","105","300544","0.0-0.0-1.10-0.10-1.73-0.73","auditory","A02F50","null","","","","","","","","",""
"null","digits/eight.wav","","audio-keyboard-response","106","301424","0.0-0.0-1.10-0.10-1.74-0.74","auditory","A02F50","null","","","","","","","","",""
"28946","<div class = numbox><p>Wie lauteten die Zahlen <b>in umgekehrter Reihenfolge</b>?<br> Antwort mit Enter-Taste best&auml;tigen.</p><button id = button_1 class = ""square num-button"" onclick = ""recordClick(this)""><div class = content><div class = numbers>1</div></div></button><button id = button_2 class = ""square num-button"" onclick = ""recordClick(this)""><div class = content><div class = numbers>2</div></div></button><button id = button_3 class = ""square num-button"" onclick = ""recordClick(this)""><div class = content><div class = numbers>3</div></div></button><button id = button_4 class = ""square num-button"" onclick = ""recordClick(this)""><div class = content><div class = numbers>4</div></div></button><button id = button_5 class = ""square num-button"" onclick = ""recordClick(this)""><div class = content><div class = numbers>5</div></div></button><button id = button_6 class = ""square num-button"" onclick = ""recordClick(this)""><div class = content><div class = numbers>6</div></div></button><button id = button_7 class = ""square num-button"" onclick = ""recordClick(this)""><div class = content><div class = numbers>7</div></div></button><button id = button_8 class = ""square num-button"" onclick = ""recordClick(this)""><div class = content><div class = numbers>8</div></div></button><button id = button_9 class = ""square num-button"" onclick = ""recordClick(this)""><div class = content><div class = numbers>9</div></div></button><button class = clear_button id = ""ClearButton"" onclick = ""clearResponse()"">L&ouml;schen</button><p><u><b>Ihre Antwort:</b></u></p><div id=echoed_txt style=""font-size: 30px; color:blue;""><b></b></div></div>","","html-keyboard-response","107","330623","0.0-0.0-1.10-0.10-2.10","auditory","A02F50","13","BDS-RESPONSE","9","8,5,2,1,6,3,9,4","8,5,2,1,6,3,7,9,4","0","3,4,5,6,7,7,8,9,9,8,9,9","8","7",""
"","","","call-function","108","330623","0.0-0.0-1.10-0.10-3.10","auditory","A02F50","","","","","","","","","",""
"4351","<p>Test 12 von 12</p>","0","html-button-response","109","334975","0.0-0.0-1.11-0.11-0.11","auditory","A02F50","","","","","","","","","",""
"null","digits/eight.wav","","audio-keyboard-response","110","336095","0.0-0.0-1.11-0.11-1.75-0.75","auditory","A02F50","null","","","","","","","","",""
"null","digits/six.wav","","audio-keyboard-response","111","337144","0.0-0.0-1.11-0.11-1.76-0.76","auditory","A02F50","null","","","","","","","","",""
"null","digits/two.wav","","audio-keyboard-response","112","338194","0.0-0.0-1.11-0.11-1.77-0.77","auditory","A02F50","null","","","","","","","","",""
"null","digits/four.wav","","audio-keyboard-response","113","339215","0.0-0.0-1.11-0.11-1.78-0.78","auditory","A02F50","null","","","","","","","","",""
"null","digits/three.wav","","audio-keyboard-response","114","340214","0.0-0.0-1.11-0.11-1.79-0.79","auditory","A02F50","null","","","","","","","","",""
"null","digits/seven.wav","","audio-keyboard-response","115","341284","0.0-0.0-1.11-0.11-1.80-0.80","auditory","A02F50","null","","","","","","","","",""
"null","digits/five.wav","","audio-keyboard-response","116","342324","0.0-0.0-1.11-0.11-1.81-0.81","auditory","A02F50","null","","","","","","","","",""
"null","digits/one.wav","","audio-keyboard-response","117","343454","0.0-0.0-1.11-0.11-1.82-0.82","auditory","A02F50","null","","","","","","","","",""
"null","digits/nine.wav","","audio-keyboard-response","118","344385","0.0-0.0-1.11-0.11-1.83-0.83","auditory","A02F50","null","","","","","","","","",""
"21233","<div class = numbox><p>Wie lauteten die Zahlen <b>in umgekehrter Reihenfolge</b>?<br> Antwort mit Enter-Taste best&auml;tigen.</p><button id = button_1 class = ""square num-button"" onclick = ""recordClick(this)""><div class = content><div class = numbers>1</div></div></button><button id = button_2 class = ""square num-button"" onclick = ""recordClick(this)""><div class = content><div class = numbers>2</div></div></button><button id = button_3 class = ""square num-button"" onclick = ""recordClick(this)""><div class = content><div class = numbers>3</div></div></button><button id = button_4 class = ""square num-button"" onclick = ""recordClick(this)""><div class = content><div class = numbers>4</div></div></button><button id = button_5 class = ""square num-button"" onclick = ""recordClick(this)""><div class = content><div class = numbers>5</div></div></button><button id = button_6 class = ""square num-button"" onclick = ""recordClick(this)""><div class = content><div class = numbers>6</div></div></button><button id = button_7 class = ""square num-button"" onclick = ""recordClick(this)""><div class = content><div class = numbers>7</div></div></button><button id = button_8 class = ""square num-button"" onclick = ""recordClick(this)""><div class = content><div class = numbers>8</div></div></button><button id = button_9 class = ""square num-button"" onclick = ""recordClick(this)""><div class = content><div class = numbers>9</div></div></button><button class = clear_button id = ""ClearButton"" onclick = ""clearResponse()"">L&ouml;schen</button><p><u><b>Ihre Antwort:</b></u></p><div id=echoed_txt style=""font-size: 30px; color:blue;""><b></b></div></div>","","html-keyboard-response","119","365870","0.0-0.0-1.11-0.11-2.11","auditory","A02F50","13","BDS-RESPONSE","9","9,1,5,7,3,4,1,6,8","9,1,5,7,3,4,2,6,8","0","3,4,5,6,7,7,8,9,9,8,9,9","8","7",""
"","","","call-function","120","365870","0.0-0.0-1.11-0.11-3.11","auditory","A02F50","","","","","","","","","",""
"53740","<p>Die Aufgabe ist erledigt! Vielen Dank!</p><p>Die Gesamtzahl Ihrer korrekten Antworten ist <b>7</b>.</p>","0","html-button-response","121","419615","0.0-1.0","auditory","A02F50","","","","","","","","","",""
