"rt","stimulus","button_pressed","trial_type","trial_index","time_elapsed","internal_node_id","BDS_modality","subject","key_press","designation","span","answer","correct","was_correct","spanHistory","max_span","total_correct","value"
"1703221","<p>Willkommen bei der <b>Ziffernspannen-Aufgabe.</b></p><p>Bei jedem Versuch h&ouml;ren Sie eine Ziffernfolge und sollen diese in umgekehrter Reihenfolge wiedergeben.</p><p>Zum Beispiel, falls sie die Zahlen <b style=""color:blue;"">Eins</b>, <b style=""color:blue;"">Zwei</b>, <b style=""color:blue;"">Drei</b>, geh&ouml;rt haben, dann antworten Sie mit <b style=""color:blue;"">3</b>, <b style=""color:blue;"">2</b>, <b style=""color:blue;"">1</b></p><p>Um eine hohe Qualit&auml;t der Daten zu gew&auml;hrleisten, ist es sehr wichtig, dass Sie keine Ged&auml;chtnisst&uuml;tze (z.B. Stift und Papier) verwenden.<br>Bitte bearbeiten Sie die Aufgabe ausschlie&#223;lich im Kopf.</p><p>Es werden insgesamt 12 Durchl&auml;ufe gemacht. Die Teilname dauert etwa 10 Minuten. Am Ende sehen sie Ihre erreichte Punktzahl.</p>","0","html-button-response","0","1703222","0.0-0.0-0.0","auditory","A03F50","","","","","","","","","",""
"1640","<p>Test 1 von 12</p>","0","html-button-response","1","1704863","0.0-0.0-1.0-0.0-0.0","auditory","A03F50","","","","","","","","","",""
"null","digits/six.wav","","audio-keyboard-response","2","1706232","0.0-0.0-1.0-0.0-1.0-0.0","auditory","A03F50","null","","","","","","","","",""
"null","digits/one.wav","","audio-keyboard-response","3","1707371","0.0-0.0-1.0-0.0-1.1-0.1","auditory","A03F50","null","","","","","","","","",""
"null","digits/three.wav","","audio-keyboard-response","4","1708381","0.0-0.0-1.0-0.0-1.2-0.2","auditory","A03F50","null","","","","","","","","",""
"22629","<div class = numbox><p>Wie lauteten die Zahlen <b>in umgekehrter Reihenfolge</b>?<br> Antwort mit Enter-Taste best&auml;tigen.</p><button id = button_1 class = ""square num-button"" onclick = ""recordClick(this)""><div class = content><div class = numbers>1</div></div></button><button id = button_2 class = ""square num-button"" onclick = ""recordClick(this)""><div class = content><div class = numbers>2</div></div></button><button id = button_3 class = ""square num-button"" onclick = ""recordClick(this)""><div class = content><div class = numbers>3</div></div></button><button id = button_4 class = ""square num-button"" onclick = ""recordClick(this)""><div class = content><div class = numbers>4</div></div></button><button id = button_5 class = ""square num-button"" onclick = ""recordClick(this)""><div class = content><div class = numbers>5</div></div></button><button id = button_6 class = ""square num-button"" onclick = ""recordClick(this)""><div class = content><div class = numbers>6</div></div></button><button id = button_7 class = ""square num-button"" onclick = ""recordClick(this)""><div class = content><div class = numbers>7</div></div></button><button id = button_8 class = ""square num-button"" onclick = ""recordClick(this)""><div class = content><div class = numbers>8</div></div></button><button id = button_9 class = ""square num-button"" onclick = ""recordClick(this)""><div class = content><div class = numbers>9</div></div></button><button class = clear_button id = ""ClearButton"" onclick = ""clearResponse()"">L&ouml;schen</button><p><u><b>Ihre Antwort:</b></u></p><div id=echoed_txt style=""font-size: 30px; color:blue;""><b></b></div></div>","","html-keyboard-response","5","1731280","0.0-0.0-1.0-0.0-2.0","auditory","A03F50","13","BDS-RESPONSE","3","3,1,6","3,1,6","1","3,4,5,6,7,8,8,7,8,9,10,10","0","0",""
"","","","call-function","6","1731281","0.0-0.0-1.0-0.0-3.0","auditory","A03F50","","","","","","","","","",""
"6110","<p>Test 2 von 12</p>","0","html-button-response","7","1737391","0.0-0.0-1.1-0.1-0.1","auditory","A03F50","","","","","","","","","",""
"null","digits/one.wav","","audio-keyboard-response","8","1738771","0.0-0.0-1.1-0.1-1.3-0.3","auditory","A03F50","null","","","","","","","","",""
"null","digits/eight.wav","","audio-keyboard-response","9","1739671","0.0-0.0-1.1-0.1-1.4-0.4","auditory","A03F50","null","","","","","","","","",""
"null","digits/nine.wav","","audio-keyboard-response","10","1740611","0.0-0.0-1.1-0.1-1.5-0.5","auditory","A03F50","null","","","","","","","","",""
"null","digits/four.wav","","audio-keyboard-response","11","1741641","0.0-0.0-1.1-0.1-1.6-0.6","auditory","A03F50","null","","","","","","","","",""
"13992","<div class = numbox><p>Wie lauteten die Zahlen <b>in umgekehrter Reihenfolge</b>?<br> Antwort mit Enter-Taste best&auml;tigen.</p><button id = button_1 class = ""square num-button"" onclick = ""recordClick(this)""><div class = content><div class = numbers>1</div></div></button><button id = button_2 class = ""square num-button"" onclick = ""recordClick(this)""><div class = content><div class = numbers>2</div></div></button><button id = button_3 class = ""square num-button"" onclick = ""recordClick(this)""><div class = content><div class = numbers>3</div></div></button><button id = button_4 class = ""square num-button"" onclick = ""recordClick(this)""><div class = content><div class = numbers>4</div></div></button><button id = button_5 class = ""square num-button"" onclick = ""recordClick(this)""><div class = content><div class = numbers>5</div></div></button><button id = button_6 class = ""square num-button"" onclick = ""recordClick(this)""><div class = content><div class = numbers>6</div></div></button><button id = button_7 class = ""square num-button"" onclick = ""recordClick(this)""><div class = content><div class = numbers>7</div></div></button><button id = button_8 class = ""square num-button"" onclick = ""recordClick(this)""><div class = content><div class = numbers>8</div></div></button><button id = button_9 class = ""square num-button"" onclick = ""recordClick(this)""><div class = content><div class = numbers>9</div></div></button><button class = clear_button id = ""ClearButton"" onclick = ""clearResponse()"">L&ouml;schen</button><p><u><b>Ihre Antwort:</b></u></p><div id=echoed_txt style=""font-size: 30px; color:blue;""><b></b></div></div>","","html-keyboard-response","12","1755893","0.0-0.0-1.1-0.1-2.1","auditory","A03F50","13","BDS-RESPONSE","4","4,9,8,1","4,9,8,1","1","3,4,5,6,7,8,8,7,8,9,10,10","3","1",""
"","","","call-function","13","1755894","0.0-0.0-1.1-0.1-3.1","auditory","A03F50","","","","","","","","","",""
"7298","<p>Test 3 von 12</p>","0","html-button-response","14","1763192","0.0-0.0-1.2-0.2-0.2","auditory","A03F50","","","","","","","","","",""
"null","digits/six.wav","","audio-keyboard-response","15","1764492","0.0-0.0-1.2-0.2-1.7-0.7","auditory","A03F50","null","","","","","","","","",""
"null","digits/nine.wav","","audio-keyboard-response","16","1765442","0.0-0.0-1.2-0.2-1.8-0.8","auditory","A03F50","null","","","","","","","","",""
"null","digits/three.wav","","audio-keyboard-response","17","1766451","0.0-0.0-1.2-0.2-1.9-0.9","auditory","A03F50","null","","","","","","","","",""
"null","digits/seven.wav","","audio-keyboard-response","18","1767542","0.0-0.0-1.2-0.2-1.10-0.10","auditory","A03F50","null","","","","","","","","",""
"null","digits/eight.wav","","audio-keyboard-response","19","1768421","0.0-0.0-1.2-0.2-1.11-0.11","auditory","A03F50","null","","","","","","","","",""
"15741","<div class = numbox><p>Wie lauteten die Zahlen <b>in umgekehrter Reihenfolge</b>?<br> Antwort mit Enter-Taste best&auml;tigen.</p><button id = button_1 class = ""square num-button"" onclick = ""recordClick(this)""><div class = content><div class = numbers>1</div></div></button><button id = button_2 class = ""square num-button"" onclick = ""recordClick(this)""><div class = content><div class = numbers>2</div></div></button><button id = button_3 class = ""square num-button"" onclick = ""recordClick(this)""><div class = content><div class = numbers>3</div></div></button><button id = button_4 class = ""square num-button"" onclick = ""recordClick(this)""><div class = content><div class = numbers>4</div></div></button><button id = button_5 class = ""square num-button"" onclick = ""recordClick(this)""><div class = content><div class = numbers>5</div></div></button><button id = button_6 class = ""square num-button"" onclick = ""recordClick(this)""><div class = content><div class = numbers>6</div></div></button><button id = button_7 class = ""square num-button"" onclick = ""recordClick(this)""><div class = content><div class = numbers>7</div></div></button><button id = button_8 class = ""square num-button"" onclick = ""recordClick(this)""><div class = content><div class = numbers>8</div></div></button><button id = button_9 class = ""square num-button"" onclick = ""recordClick(this)""><div class = content><div class = numbers>9</div></div></button><button class = clear_button id = ""ClearButton"" onclick = ""clearResponse()"">L&ouml;schen</button><p><u><b>Ihre Antwort:</b></u></p><div id=echoed_txt style=""font-size: 30px; color:blue;""><b></b></div></div>","","html-keyboard-response","20","1784423","0.0-0.0-1.2-0.2-2.2","auditory","A03F50","13","BDS-RESPONSE","5","8,7,3,9,6","8,7,3,9,6","1","3,4,5,6,7,8,8,7,8,9,10,10","4","2",""
"","","","call-function","21","1784423","0.0-0.0-1.2-0.2-3.2","auditory","A03F50","","","","","","","","","",""
"8109","<p>Test 4 von 12</p>","0","html-button-response","22","1792532","0.0-0.0-1.3-0.3-0.3","auditory","A03F50","","","","","","","","","",""
"null","digits/seven.wav","","audio-keyboard-response","23","1793862","0.0-0.0-1.3-0.3-1.12-0.12","auditory","A03F50","null","","","","","","","","",""
"null","digits/eight.wav","","audio-keyboard-response","24","1794752","0.0-0.0-1.3-0.3-1.13-0.13","auditory","A03F50","null","","","","","","","","",""
"null","digits/three.wav","","audio-keyboard-response","25","1795772","0.0-0.0-1.3-0.3-1.14-0.14","auditory","A03F50","null","","","","","","","","",""
"null","digits/two.wav","","audio-keyboard-response","26","1796832","0.0-0.0-1.3-0.3-1.15-0.15","auditory","A03F50","null","","","","","","","","",""
"null","digits/four.wav","","audio-keyboard-response","27","1797861","0.0-0.0-1.3-0.3-1.16-0.16","auditory","A03F50","null","","","","","","","","",""
"null","digits/one.wav","","audio-keyboard-response","28","1798991","0.0-0.0-1.3-0.3-1.17-0.17","auditory","A03F50","null","","","","","","","","",""
"26763","<div class = numbox><p>Wie lauteten die Zahlen <b>in umgekehrter Reihenfolge</b>?<br> Antwort mit Enter-Taste best&auml;tigen.</p><button id = button_1 class = ""square num-button"" onclick = ""recordClick(this)""><div class = content><div class = numbers>1</div></div></button><button id = button_2 class = ""square num-button"" onclick = ""recordClick(this)""><div class = content><div class = numbers>2</div></div></button><button id = button_3 class = ""square num-button"" onclick = ""recordClick(this)""><div class = content><div class = numbers>3</div></div></button><button id = button_4 class = ""square num-button"" onclick = ""recordClick(this)""><div class = content><div class = numbers>4</div></div></button><button id = button_5 class = ""square num-button"" onclick = ""recordClick(this)""><div class = content><div class = numbers>5</div></div></button><button id = button_6 class = ""square num-button"" onclick = ""recordClick(this)""><div class = content><div class = numbers>6</div></div></button><button id = button_7 class = ""square num-button"" onclick = ""recordClick(this)""><div class = content><div class = numbers>7</div></div></button><button id = button_8 class = ""square num-button"" onclick = ""recordClick(this)""><div class = content><div class = numbers>8</div></div></button><button id = button_9 class = ""square num-button"" onclick = ""recordClick(this)""><div class = content><div class = numbers>9</div></div></button><button class = clear_button id = ""ClearButton"" onclick = ""clearResponse()"">L&ouml;schen</button><p><u><b>Ihre Antwort:</b></u></p><div id=echoed_txt style=""font-size: 30px; color:blue;""><b></b></div></div>","","html-keyboard-response","29","1826025","0.0-0.0-1.3-0.3-2.3","auditory","A03F50","13","BDS-RESPONSE","6","1,4,2,3,8,7","1,4,2,3,8,7","1","3,4,5,6,7,8,8,7,8,9,10,10","5","3",""
"","","","call-function","30","1826025","0.0-0.0-1.3-0.3-3.3","auditory","A03F50","","","","","","","","","",""
"1736","<p>Test 5 von 12</p>","0","html-button-response","31","1827762","0.0-0.0-1.4-0.4-0.4","auditory","A03F50","","","","","","","","","",""
"null","digits/nine.wav","","audio-keyboard-response","32","1828942","0.0-0.0-1.4-0.4-1.18-0.18","auditory","A03F50","null","","","","","","","","",""
"null","digits/one.wav","","audio-keyboard-response","33","1830072","0.0-0.0-1.4-0.4-1.19-0.19","auditory","A03F50","null","","","","","","","","",""
"null","digits/two.wav","","audio-keyboard-response","34","1831132","0.0-0.0-1.4-0.4-1.20-0.20","auditory","A03F50","null","","","","","","","","",""
"null","digits/five.wav","","audio-keyboard-response","35","1832181","0.0-0.0-1.4-0.4-1.21-0.21","auditory","A03F50","null","","","","","","","","",""
"null","digits/four.wav","","audio-keyboard-response","36","1833201","0.0-0.0-1.4-0.4-1.22-0.22","auditory","A03F50","null","","","","","","","","",""
"null","digits/three.wav","","audio-keyboard-response","37","1834212","0.0-0.0-1.4-0.4-1.23-0.23","auditory","A03F50","null","","","","","","","","",""
"null","digits/eight.wav","","audio-keyboard-response","38","1835101","0.0-0.0-1.4-0.4-1.24-0.24","auditory","A03F50","null","","","","","","","","",""
"32313","<div class = numbox><p>Wie lauteten die Zahlen <b>in umgekehrter Reihenfolge</b>?<br> Antwort mit Enter-Taste best&auml;tigen.</p><button id = button_1 class = ""square num-button"" onclick = ""recordClick(this)""><div class = content><div class = numbers>1</div></div></button><button id = button_2 class = ""square num-button"" onclick = ""recordClick(this)""><div class = content><div class = numbers>2</div></div></button><button id = button_3 class = ""square num-button"" onclick = ""recordClick(this)""><div class = content><div class = numbers>3</div></div></button><button id = button_4 class = ""square num-button"" onclick = ""recordClick(this)""><div class = content><div class = numbers>4</div></div></button><button id = button_5 class = ""square num-button"" onclick = ""recordClick(this)""><div class = content><div class = numbers>5</div></div></button><button id = button_6 class = ""square num-button"" onclick = ""recordClick(this)""><div class = content><div class = numbers>6</div></div></button><button id = button_7 class = ""square num-button"" onclick = ""recordClick(this)""><div class = content><div class = numbers>7</div></div></button><button id = button_8 class = ""square num-button"" onclick = ""recordClick(this)""><div class = content><div class = numbers>8</div></div></button><button id = button_9 class = ""square num-button"" onclick = ""recordClick(this)""><div class = content><div class = numbers>9</div></div></button><button class = clear_button id = ""ClearButton"" onclick = ""clearResponse()"">L&ouml;schen</button><p><u><b>Ihre Antwort:</b></u></p><div id=echoed_txt style=""font-size: 30px; color:blue;""><b></b></div></div>","","html-keyboard-response","39","1867675","0.0-0.0-1.4-0.4-2.4","auditory","A03F50","13","BDS-RESPONSE","7","8,3,4,5,2,1,9","8,3,4,5,2,1,9","1","3,4,5,6,7,8,8,7,8,9,10,10","6","4",""
"","","","call-function","40","1867675","0.0-0.0-1.4-0.4-3.4","auditory","A03F50","","","","","","","","","",""
"2869","<p>Test 6 von 12</p>","0","html-button-response","41","1870544","0.0-0.0-1.5-0.5-0.5","auditory","A03F50","","","","","","","","","",""
"null","digits/five.wav","","audio-keyboard-response","42","1871883","0.0-0.0-1.5-0.5-1.25-0.25","auditory","A03F50","null","","","","","","","","",""
"null","digits/eight.wav","","audio-keyboard-response","43","1872763","0.0-0.0-1.5-0.5-1.26-0.26","auditory","A03F50","null","","","","","","","","",""
"null","digits/four.wav","","audio-keyboard-response","44","1873783","0.0-0.0-1.5-0.5-1.27-0.27","auditory","A03F50","null","","","","","","","","",""
"null","digits/one.wav","","audio-keyboard-response","45","1874914","0.0-0.0-1.5-0.5-1.28-0.28","auditory","A03F50","null","","","","","","","","",""
"null","digits/three.wav","","audio-keyboard-response","46","1875933","0.0-0.0-1.5-0.5-1.29-0.29","auditory","A03F50","null","","","","","","","","",""
"null","digits/six.wav","","audio-keyboard-response","47","1876994","0.0-0.0-1.5-0.5-1.30-0.30","auditory","A03F50","null","","","","","","","","",""
"null","digits/two.wav","","audio-keyboard-response","48","1878054","0.0-0.0-1.5-0.5-1.31-0.31","auditory","A03F50","null","","","","","","","","",""
"null","digits/nine.wav","","audio-keyboard-response","49","1878994","0.0-0.0-1.5-0.5-1.32-0.32","auditory","A03F50","null","","","","","","","","",""
"26946","<div class = numbox><p>Wie lauteten die Zahlen <b>in umgekehrter Reihenfolge</b>?<br> Antwort mit Enter-Taste best&auml;tigen.</p><button id = button_1 class = ""square num-button"" onclick = ""recordClick(this)""><div class = content><div class = numbers>1</div></div></button><button id = button_2 class = ""square num-button"" onclick = ""recordClick(this)""><div class = content><div class = numbers>2</div></div></button><button id = button_3 class = ""square num-button"" onclick = ""recordClick(this)""><div class = content><div class = numbers>3</div></div></button><button id = button_4 class = ""square num-button"" onclick = ""recordClick(this)""><div class = content><div class = numbers>4</div></div></button><button id = button_5 class = ""square num-button"" onclick = ""recordClick(this)""><div class = content><div class = numbers>5</div></div></button><button id = button_6 class = ""square num-button"" onclick = ""recordClick(this)""><div class = content><div class = numbers>6</div></div></button><button id = button_7 class = ""square num-button"" onclick = ""recordClick(this)""><div class = content><div class = numbers>7</div></div></button><button id = button_8 class = ""square num-button"" onclick = ""recordClick(this)""><div class = content><div class = numbers>8</div></div></button><button id = button_9 class = ""square num-button"" onclick = ""recordClick(this)""><div class = content><div class = numbers>9</div></div></button><button class = clear_button id = ""ClearButton"" onclick = ""clearResponse()"">L&ouml;schen</button><p><u><b>Ihre Antwort:</b></u></p><div id=echoed_txt style=""font-size: 30px; color:blue;""><b></b></div></div>","","html-keyboard-response","50","1906210","0.0-0.0-1.5-0.5-2.5","auditory","A03F50","13","BDS-RESPONSE","8","9,8,3,1,4,7,5","9,2,6,3,1,4,8,5","0","3,4,5,6,7,8,8,7,8,9,10,10","7","5",""
"","","","call-function","51","1906210","0.0-0.0-1.5-0.5-3.5","auditory","A03F50","","","","","","","","","",""
"2023","<p>Test 7 von 12</p>","0","html-button-response","52","1908234","0.0-0.0-1.6-0.6-0.6","auditory","A03F50","","","","","","","","","",""
"null","digits/five.wav","","audio-keyboard-response","53","1909534","0.0-0.0-1.6-0.6-1.33-0.33","auditory","A03F50","null","","","","","","","","",""
"null","digits/eight.wav","","audio-keyboard-response","54","1910423","0.0-0.0-1.6-0.6-1.34-0.34","auditory","A03F50","null","","","","","","","","",""
"null","digits/nine.wav","","audio-keyboard-response","55","1911363","0.0-0.0-1.6-0.6-1.35-0.35","auditory","A03F50","null","","","","","","","","",""
"null","digits/two.wav","","audio-keyboard-response","56","1912414","0.0-0.0-1.6-0.6-1.36-0.36","auditory","A03F50","null","","","","","","","","",""
"null","digits/seven.wav","","audio-keyboard-response","57","1913503","0.0-0.0-1.6-0.6-1.37-0.37","auditory","A03F50","null","","","","","","","","",""
"null","digits/three.wav","","audio-keyboard-response","58","1914514","0.0-0.0-1.6-0.6-1.38-0.38","auditory","A03F50","null","","","","","","","","",""
"null","digits/four.wav","","audio-keyboard-response","59","1915543","0.0-0.0-1.6-0.6-1.39-0.39","auditory","A03F50","null","","","","","","","","",""
"null","digits/one.wav","","audio-keyboard-response","60","1916673","0.0-0.0-1.6-0.6-1.40-0.40","auditory","A03F50","null","","","","","","","","",""
"31428","<div class = numbox><p>Wie lauteten die Zahlen <b>in umgekehrter Reihenfolge</b>?<br> Antwort mit Enter-Taste best&auml;tigen.</p><button id = button_1 class = ""square num-button"" onclick = ""recordClick(this)""><div class = content><div class = numbers>1</div></div></button><button id = button_2 class = ""square num-button"" onclick = ""recordClick(this)""><div class = content><div class = numbers>2</div></div></button><button id = button_3 class = ""square num-button"" onclick = ""recordClick(this)""><div class = content><div class = numbers>3</div></div></button><button id = button_4 class = ""square num-button"" onclick = ""recordClick(this)""><div class = content><div class = numbers>4</div></div></button><button id = button_5 class = ""square num-button"" onclick = ""recordClick(this)""><div class = content><div class = numbers>5</div></div></button><button id = button_6 class = ""square num-button"" onclick = ""recordClick(this)""><div class = content><div class = numbers>6</div></div></button><button id = button_7 class = ""square num-button"" onclick = ""recordClick(this)""><div class = content><div class = numbers>7</div></div></button><button id = button_8 class = ""square num-button"" onclick = ""recordClick(this)""><div class = content><div class = numbers>8</div></div></button><button id = button_9 class = ""square num-button"" onclick = ""recordClick(this)""><div class = content><div class = numbers>9</div></div></button><button class = clear_button id = ""ClearButton"" onclick = ""clearResponse()"">L&ouml;schen</button><p><u><b>Ihre Antwort:</b></u></p><div id=echoed_txt style=""font-size: 30px; color:blue;""><b></b></div></div>","","html-keyboard-response","61","1948361","0.0-0.0-1.6-0.6-2.6","auditory","A03F50","13","BDS-RESPONSE","8","1,4,3,6,2,9,8,5","1,4,3,7,2,9,8,5","0","3,4,5,6,7,8,8,7,8,9,10,10","7","5",""
"","","","call-function","62","1948362","0.0-0.0-1.6-0.6-3.6","auditory","A03F50","","","","","","","","","",""
"3122","<p>Test 8 von 12</p>","0","html-button-response","63","1951484","0.0-0.0-1.7-0.7-0.7","auditory","A03F50","","","","","","","","","",""
"null","digits/eight.wav","","audio-keyboard-response","64","1952649","0.0-0.0-1.7-0.7-1.41-0.41","auditory","A03F50","null","","","","","","","","",""
"null","digits/five.wav","","audio-keyboard-response","65","1953689","0.0-0.0-1.7-0.7-1.42-0.42","auditory","A03F50","null","","","","","","","","",""
"null","digits/two.wav","","audio-keyboard-response","66","1954740","0.0-0.0-1.7-0.7-1.43-0.43","auditory","A03F50","null","","","","","","","","",""
"null","digits/one.wav","","audio-keyboard-response","67","1955880","0.0-0.0-1.7-0.7-1.44-0.44","auditory","A03F50","null","","","","","","","","",""
"null","digits/three.wav","","audio-keyboard-response","68","1956900","0.0-0.0-1.7-0.7-1.45-0.45","auditory","A03F50","null","","","","","","","","",""
"null","digits/seven.wav","","audio-keyboard-response","69","1957980","0.0-0.0-1.7-0.7-1.46-0.46","auditory","A03F50","null","","","","","","","","",""
"null","digits/nine.wav","","audio-keyboard-response","70","1958929","0.0-0.0-1.7-0.7-1.47-0.47","auditory","A03F50","null","","","","","","","","",""
"22755","<div class = numbox><p>Wie lauteten die Zahlen <b>in umgekehrter Reihenfolge</b>?<br> Antwort mit Enter-Taste best&auml;tigen.</p><button id = button_1 class = ""square num-button"" onclick = ""recordClick(this)""><div class = content><div class = numbers>1</div></div></button><button id = button_2 class = ""square num-button"" onclick = ""recordClick(this)""><div class = content><div class = numbers>2</div></div></button><button id = button_3 class = ""square num-button"" onclick = ""recordClick(this)""><div class = content><div class = numbers>3</div></div></button><button id = button_4 class = ""square num-button"" onclick = ""recordClick(this)""><div class = content><div class = numbers>4</div></div></button><button id = button_5 class = ""square num-button"" onclick = ""recordClick(this)""><div class = content><div class = numbers>5</div></div></button><button id = button_6 class = ""square num-button"" onclick = ""recordClick(this)""><div class = content><div class = numbers>6</div></div></button><button id = button_7 class = ""square num-button"" onclick = ""recordClick(this)""><div class = content><div class = numbers>7</div></div></button><button id = button_8 class = ""square num-button"" onclick = ""recordClick(this)""><div class = content><div class = numbers>8</div></div></button><button id = button_9 class = ""square num-button"" onclick = ""recordClick(this)""><div class = content><div class = numbers>9</div></div></button><button class = clear_button id = ""ClearButton"" onclick = ""clearResponse()"">L&ouml;schen</button><p><u><b>Ihre Antwort:</b></u></p><div id=echoed_txt style=""font-size: 30px; color:blue;""><b></b></div></div>","","html-keyboard-response","71","1981944","0.0-0.0-1.7-0.7-2.7","auditory","A03F50","13","BDS-RESPONSE","7","9,7,3,1,2,5,8","9,7,3,1,2,5,8","1","3,4,5,6,7,8,8,7,8,9,10,10","7","5",""
"","","","call-function","72","1981944","0.0-0.0-1.7-0.7-3.7","auditory","A03F50","","","","","","","","","",""
"11991","<p>Test 9 von 12</p>","0","html-button-response","73","1993937","0.0-0.0-1.8-0.8-0.8","auditory","A03F50","","","","","","","","","",""
"null","digits/four.wav","","audio-keyboard-response","74","1995224","0.0-0.0-1.8-0.8-1.48-0.48","auditory","A03F50","null","","","","","","","","",""
"null","digits/nine.wav","","audio-keyboard-response","75","1996153","0.0-0.0-1.8-0.8-1.49-0.49","auditory","A03F50","null","","","","","","","","",""
"null","digits/one.wav","","audio-keyboard-response","76","1997304","0.0-0.0-1.8-0.8-1.50-0.50","auditory","A03F50","null","","","","","","","","",""
"null","digits/six.wav","","audio-keyboard-response","77","1998353","0.0-0.0-1.8-0.8-1.51-0.51","auditory","A03F50","null","","","","","","","","",""
"null","digits/two.wav","","audio-keyboard-response","78","1999414","0.0-0.0-1.8-0.8-1.52-0.52","auditory","A03F50","null","","","","","","","","",""
"null","digits/eight.wav","","audio-keyboard-response","79","2000303","0.0-0.0-1.8-0.8-1.53-0.53","auditory","A03F50","null","","","","","","","","",""
"null","digits/five.wav","","audio-keyboard-response","80","2001343","0.0-0.0-1.8-0.8-1.54-0.54","auditory","A03F50","null","","","","","","","","",""
"null","digits/three.wav","","audio-keyboard-response","81","2002354","0.0-0.0-1.8-0.8-1.55-0.55","auditory","A03F50","null","","","","","","","","",""
"26418","<div class = numbox><p>Wie lauteten die Zahlen <b>in umgekehrter Reihenfolge</b>?<br> Antwort mit Enter-Taste best&auml;tigen.</p><button id = button_1 class = ""square num-button"" onclick = ""recordClick(this)""><div class = content><div class = numbers>1</div></div></button><button id = button_2 class = ""square num-button"" onclick = ""recordClick(this)""><div class = content><div class = numbers>2</div></div></button><button id = button_3 class = ""square num-button"" onclick = ""recordClick(this)""><div class = content><div class = numbers>3</div></div></button><button id = button_4 class = ""square num-button"" onclick = ""recordClick(this)""><div class = content><div class = numbers>4</div></div></button><button id = button_5 class = ""square num-button"" onclick = ""recordClick(this)""><div class = content><div class = numbers>5</div></div></button><button id = button_6 class = ""square num-button"" onclick = ""recordClick(this)""><div class = content><div class = numbers>6</div></div></button><button id = button_7 class = ""square num-button"" onclick = ""recordClick(this)""><div class = content><div class = numbers>7</div></div></button><button id = button_8 class = ""square num-button"" onclick = ""recordClick(this)""><div class = content><div class = numbers>8</div></div></button><button id = button_9 class = ""square num-button"" onclick = ""recordClick(this)""><div class = content><div class = numbers>9</div></div></button><button class = clear_button id = ""ClearButton"" onclick = ""clearResponse()"">L&ouml;schen</button><p><u><b>Ihre Antwort:</b></u></p><div id=echoed_txt style=""font-size: 30px; color:blue;""><b></b></div></div>","","html-keyboard-response","82","2029042","0.0-0.0-1.8-0.8-2.8","auditory","A03F50","13","BDS-RESPONSE","8","3,5,8,2,6,1,9,4","3,5,8,2,6,1,9,4","1","3,4,5,6,7,8,8,7,8,9,10,10","7","6",""
"","","","call-function","83","2029042","0.0-0.0-1.8-0.8-3.8","auditory","A03F50","","","","","","","","","",""
"4552","<p>Test 10 von 12</p>","0","html-button-response","84","2033594","0.0-0.0-1.9-0.9-0.9","auditory","A03F50","","","","","","","","","",""
"null","digits/nine.wav","","audio-keyboard-response","85","2034773","0.0-0.0-1.9-0.9-1.56-0.56","auditory","A03F50","null","","","","","","","","",""
"null","digits/seven.wav","","audio-keyboard-response","86","2035853","0.0-0.0-1.9-0.9-1.57-0.57","auditory","A03F50","null","","","","","","","","",""
"null","digits/one.wav","","audio-keyboard-response","87","2036982","0.0-0.0-1.9-0.9-1.58-0.58","auditory","A03F50","null","","","","","","","","",""
"null","digits/two.wav","","audio-keyboard-response","88","2038033","0.0-0.0-1.9-0.9-1.59-0.59","auditory","A03F50","null","","","","","","","","",""
"null","digits/three.wav","","audio-keyboard-response","89","2039053","0.0-0.0-1.9-0.9-1.60-0.60","auditory","A03F50","null","","","","","","","","",""
"null","digits/five.wav","","audio-keyboard-response","90","2040102","0.0-0.0-1.9-0.9-1.61-0.61","auditory","A03F50","null","","","","","","","","",""
"null","digits/six.wav","","audio-keyboard-response","91","2041152","0.0-0.0-1.9-0.9-1.62-0.62","auditory","A03F50","null","","","","","","","","",""
"null","digits/eight.wav","","audio-keyboard-response","92","2042042","0.0-0.0-1.9-0.9-1.63-0.63","auditory","A03F50","null","","","","","","","","",""
"null","digits/four.wav","","audio-keyboard-response","93","2043062","0.0-0.0-1.9-0.9-1.64-0.64","auditory","A03F50","null","","","","","","","","",""
"28365","<div class = numbox><p>Wie lauteten die Zahlen <b>in umgekehrter Reihenfolge</b>?<br> Antwort mit Enter-Taste best&auml;tigen.</p><button id = button_1 class = ""square num-button"" onclick = ""recordClick(this)""><div class = content><div class = numbers>1</div></div></button><button id = button_2 class = ""square num-button"" onclick = ""recordClick(this)""><div class = content><div class = numbers>2</div></div></button><button id = button_3 class = ""square num-button"" onclick = ""recordClick(this)""><div class = content><div class = numbers>3</div></div></button><button id = button_4 class = ""square num-button"" onclick = ""recordClick(this)""><div class = content><div class = numbers>4</div></div></button><button id = button_5 class = ""square num-button"" onclick = ""recordClick(this)""><div class = content><div class = numbers>5</div></div></button><button id = button_6 class = ""square num-button"" onclick = ""recordClick(this)""><div class = content><div class = numbers>6</div></div></button><button id = button_7 class = ""square num-button"" onclick = ""recordClick(this)""><div class = content><div class = numbers>7</div></div></button><button id = button_8 class = ""square num-button"" onclick = ""recordClick(this)""><div class = content><div class = numbers>8</div></div></button><button id = button_9 class = ""square num-button"" onclick = ""recordClick(this)""><div class = content><div class = numbers>9</div></div></button><button class = clear_button id = ""ClearButton"" onclick = ""clearResponse()"">L&ouml;schen</button><p><u><b>Ihre Antwort:</b></u></p><div id=echoed_txt style=""font-size: 30px; color:blue;""><b></b></div></div>","","html-keyboard-response","94","2071688","0.0-0.0-1.9-0.9-2.9","auditory","A03F50","13","BDS-RESPONSE","9","4,8,6,5,3,2,1,7,9","4,8,6,5,3,2,1,7,9","1","3,4,5,6,7,8,8,7,8,9,10,10","8","7",""
"","","","call-function","95","2071688","0.0-0.0-1.9-0.9-3.9","auditory","A03F50","","","","","","","","","",""
"3509","<p>Test 11 von 12</p>","0","html-button-response","96","2075197","0.0-0.0-1.10-0.10-0.10","auditory","A03F50","","","","","","","","","",""
"null","digits/six.wav","","audio-keyboard-response","97","2076491","0.0-0.0-1.10-0.10-1.65-0.65","auditory","A03F50","null","","","","","","","","",""
"null","digits/eight.wav","","audio-keyboard-response","98","2077391","0.0-0.0-1.10-0.10-1.66-0.66","auditory","A03F50","null","","","","","","","","",""
"null","digits/nine.wav","","audio-keyboard-response","99","2078331","0.0-0.0-1.10-0.10-1.67-0.67","auditory","A03F50","null","","","","","","","","",""
"null","digits/three.wav","","audio-keyboard-response","100","2079350","0.0-0.0-1.10-0.10-1.68-0.68","auditory","A03F50","null","","","","","","","","",""
"null","digits/five.wav","","audio-keyboard-response","101","2080400","0.0-0.0-1.10-0.10-1.69-0.69","auditory","A03F50","null","","","","","","","","",""
"null","digits/one.wav","","audio-keyboard-response","102","2081531","0.0-0.0-1.10-0.10-1.70-0.70","auditory","A03F50","null","","","","","","","","",""
"null","digits/four.wav","","audio-keyboard-response","103","2082551","0.0-0.0-1.10-0.10-1.71-0.71","auditory","A03F50","null","","","","","","","","",""
"null","digits/two.wav","","audio-keyboard-response","104","2083610","0.0-0.0-1.10-0.10-1.72-0.72","auditory","A03F50","null","","","","","","","","",""
"null","digits/seven.wav","","audio-keyboard-response","105","2084681","0.0-0.0-1.10-0.10-1.73-0.73","auditory","A03F50","null","","","","","","","","",""
"null","digits/eight.wav","","audio-keyboard-response","106","2085581","0.0-0.0-1.10-0.10-1.74-0.74","auditory","A03F50","null","","","","","","","","",""
"68294","<div class = numbox><p>Wie lauteten die Zahlen <b>in umgekehrter Reihenfolge</b>?<br> Antwort mit Enter-Taste best&auml;tigen.</p><button id = button_1 class = ""square num-button"" onclick = ""recordClick(this)""><div class = content><div class = numbers>1</div></div></button><button id = button_2 class = ""square num-button"" onclick = ""recordClick(this)""><div class = content><div class = numbers>2</div></div></button><button id = button_3 class = ""square num-button"" onclick = ""recordClick(this)""><div class = content><div class = numbers>3</div></div></button><button id = button_4 class = ""square num-button"" onclick = ""recordClick(this)""><div class = content><div class = numbers>4</div></div></button><button id = button_5 class = ""square num-button"" onclick = ""recordClick(this)""><div class = content><div class = numbers>5</div></div></button><button id = button_6 class = ""square num-button"" onclick = ""recordClick(this)""><div class = content><div class = numbers>6</div></div></button><button id = button_7 class = ""square num-button"" onclick = ""recordClick(this)""><div class = content><div class = numbers>7</div></div></button><button id = button_8 class = ""square num-button"" onclick = ""recordClick(this)""><div class = content><div class = numbers>8</div></div></button><button id = button_9 class = ""square num-button"" onclick = ""recordClick(this)""><div class = content><div class = numbers>9</div></div></button><button class = clear_button id = ""ClearButton"" onclick = ""clearResponse()"">L&ouml;schen</button><p><u><b>Ihre Antwort:</b></u></p><div id=echoed_txt style=""font-size: 30px; color:blue;""><b></b></div></div>","","html-keyboard-response","107","2154145","0.0-0.0-1.10-0.10-2.10","auditory","A03F50","13","BDS-RESPONSE","10","8,2,4,5,3,9,8,6","8,7,2,4,1,5,3,9,8,6","0","3,4,5,6,7,8,8,7,8,9,10,10","9","8",""
"","","","call-function","108","2154145","0.0-0.0-1.10-0.10-3.10","auditory","A03F50","","","","","","","","","",""
"6169","<p>Test 12 von 12</p>","0","html-button-response","109","2160314","0.0-0.0-1.11-0.11-0.11","auditory","A03F50","","","","","","","","","",""
"null","digits/one.wav","","audio-keyboard-response","110","2161722","0.0-0.0-1.11-0.11-1.75-0.75","auditory","A03F50","null","","","","","","","","",""
"null","digits/six.wav","","audio-keyboard-response","111","2162772","0.0-0.0-1.11-0.11-1.76-0.76","auditory","A03F50","null","","","","","","","","",""
"null","digits/seven.wav","","audio-keyboard-response","112","2163862","0.0-0.0-1.11-0.11-1.77-0.77","auditory","A03F50","null","","","","","","","","",""
"null","digits/eight.wav","","audio-keyboard-response","113","2164742","0.0-0.0-1.11-0.11-1.78-0.78","auditory","A03F50","null","","","","","","","","",""
"null","digits/two.wav","","audio-keyboard-response","114","2165792","0.0-0.0-1.11-0.11-1.79-0.79","auditory","A03F50","null","","","","","","","","",""
"null","digits/three.wav","","audio-keyboard-response","115","2166802","0.0-0.0-1.11-0.11-1.80-0.80","auditory","A03F50","null","","","","","","","","",""
"null","digits/nine.wav","","audio-keyboard-response","116","2167732","0.0-0.0-1.11-0.11-1.81-0.81","auditory","A03F50","null","","","","","","","","",""
"null","digits/four.wav","","audio-keyboard-response","117","2168762","0.0-0.0-1.11-0.11-1.82-0.82","auditory","A03F50","null","","","","","","","","",""
"null","digits/five.wav","","audio-keyboard-response","118","2169802","0.0-0.0-1.11-0.11-1.83-0.83","auditory","A03F50","null","","","","","","","","",""
"null","digits/two.wav","","audio-keyboard-response","119","2170852","0.0-0.0-1.11-0.11-1.84-0.84","auditory","A03F50","null","","","","","","","","",""
"32767","<div class = numbox><p>Wie lauteten die Zahlen <b>in umgekehrter Reihenfolge</b>?<br> Antwort mit Enter-Taste best&auml;tigen.</p><button id = button_1 class = ""square num-button"" onclick = ""recordClick(this)""><div class = content><div class = numbers>1</div></div></button><button id = button_2 class = ""square num-button"" onclick = ""recordClick(this)""><div class = content><div class = numbers>2</div></div></button><button id = button_3 class = ""square num-button"" onclick = ""recordClick(this)""><div class = content><div class = numbers>3</div></div></button><button id = button_4 class = ""square num-button"" onclick = ""recordClick(this)""><div class = content><div class = numbers>4</div></div></button><button id = button_5 class = ""square num-button"" onclick = ""recordClick(this)""><div class = content><div class = numbers>5</div></div></button><button id = button_6 class = ""square num-button"" onclick = ""recordClick(this)""><div class = content><div class = numbers>6</div></div></button><button id = button_7 class = ""square num-button"" onclick = ""recordClick(this)""><div class = content><div class = numbers>7</div></div></button><button id = button_8 class = ""square num-button"" onclick = ""recordClick(this)""><div class = content><div class = numbers>8</div></div></button><button id = button_9 class = ""square num-button"" onclick = ""recordClick(this)""><div class = content><div class = numbers>9</div></div></button><button class = clear_button id = ""ClearButton"" onclick = ""clearResponse()"">L&ouml;schen</button><p><u><b>Ihre Antwort:</b></u></p><div id=echoed_txt style=""font-size: 30px; color:blue;""><b></b></div></div>","","html-keyboard-response","120","2203889","0.0-0.0-1.11-0.11-2.11","auditory","A03F50","13","BDS-RESPONSE","10","2,5,4,9,3,2,8,7,6","2,5,4,9,3,2,8,7,6,1","0","3,4,5,6,7,8,8,7,8,9,10,10","9","8",""
"","","","call-function","121","2203890","0.0-0.0-1.11-0.11-3.11","auditory","A03F50","","","","","","","","","",""
