"rt","stimulus","button_pressed","trial_type","trial_index","time_elapsed","internal_node_id","BDS_modality","subject","key_press","designation","span","answer","correct","was_correct","spanHistory","max_span","total_correct","value"
"130284","<p>Willkommen bei der <b>Ziffernspannen-Aufgabe.</b></p><p>Bei jedem Versuch h&ouml;ren Sie eine Ziffernfolge und sollen diese in umgekehrter Reihenfolge wiedergeben.</p><p>Zum Beispiel, falls sie die Zahlen <b style=""color:blue;"">Eins</b>, <b style=""color:blue;"">Zwei</b>, <b style=""color:blue;"">Drei</b>, geh&ouml;rt haben, dann antworten Sie mit <b style=""color:blue;"">3</b>, <b style=""color:blue;"">2</b>, <b style=""color:blue;"">1</b></p><p>Um eine hohe Qualit&auml;t der Daten zu gew&auml;hrleisten, ist es sehr wichtig, dass Sie keine Ged&auml;chtnisst&uuml;tze (z.B. Stift und Papier) verwenden.<br>Bitte bearbeiten Sie die Aufgabe ausschlie&#223;lich im Kopf.</p><p>Es werden insgesamt 12 Durchl&auml;ufe gemacht. Die Teilname dauert etwa 10 Minuten. Am Ende sehen sie Ihre erreichte Punktzahl.</p>","0","html-button-response","0","130286","0.0-0.0-0.0","auditory","InnoA03E02","","","","","","","","","",""
"1282","<p>Test 1 von 12</p>","0","html-button-response","1","131568","0.0-0.0-1.0-0.0-0.0","auditory","InnoA03E02","","","","","","","","","",""
"null","digits/four.wav","","audio-keyboard-response","2","132853","0.0-0.0-1.0-0.0-1.0-0.0","auditory","InnoA03E02","null","","","","","","","","",""
"null","digits/seven.wav","","audio-keyboard-response","3","133924","0.0-0.0-1.0-0.0-1.1-0.1","auditory","InnoA03E02","null","","","","","","","","",""
"null","digits/three.wav","","audio-keyboard-response","4","134925","0.0-0.0-1.0-0.0-1.2-0.2","auditory","InnoA03E02","null","","","","","","","","",""
"5277","<div class = numbox><p>Wie lauteten die Zahlen <b>in umgekehrter Reihenfolge</b>?<br> Antwort mit Enter-Taste best&auml;tigen.</p><button id = button_1 class = ""square num-button"" onclick = ""recordClick(this)""><div class = content><div class = numbers>1</div></div></button><button id = button_2 class = ""square num-button"" onclick = ""recordClick(this)""><div class = content><div class = numbers>2</div></div></button><button id = button_3 class = ""square num-button"" onclick = ""recordClick(this)""><div class = content><div class = numbers>3</div></div></button><button id = button_4 class = ""square num-button"" onclick = ""recordClick(this)""><div class = content><div class = numbers>4</div></div></button><button id = button_5 class = ""square num-button"" onclick = ""recordClick(this)""><div class = content><div class = numbers>5</div></div></button><button id = button_6 class = ""square num-button"" onclick = ""recordClick(this)""><div class = content><div class = numbers>6</div></div></button><button id = button_7 class = ""square num-button"" onclick = ""recordClick(this)""><div class = content><div class = numbers>7</div></div></button><button id = button_8 class = ""square num-button"" onclick = ""recordClick(this)""><div class = content><div class = numbers>8</div></div></button><button id = button_9 class = ""square num-button"" onclick = ""recordClick(this)""><div class = content><div class = numbers>9</div></div></button><button class = clear_button id = ""ClearButton"" onclick = ""clearResponse()"">L&ouml;schen</button><p><u><b>Ihre Antwort:</b></u></p><div id=echoed_txt style=""font-size: 30px; color:blue;""><b></b></div></div>","","html-keyboard-response","5","140453","0.0-0.0-1.0-0.0-2.0","auditory","InnoA03E02","13","BDS-RESPONSE","3","3,7,4","3,7,4","1","3,4,5,6,6,5,6,6,5,5,6,6","0","0",""
"","","","call-function","6","140454","0.0-0.0-1.0-0.0-3.0","auditory","InnoA03E02","","","","","","","","","",""
"1336","<p>Test 2 von 12</p>","0","html-button-response","7","141790","0.0-0.0-1.1-0.1-0.1","auditory","InnoA03E02","","","","","","","","","",""
"null","digits/seven.wav","","audio-keyboard-response","8","143110","0.0-0.0-1.1-0.1-1.3-0.3","auditory","InnoA03E02","null","","","","","","","","",""
"null","digits/three.wav","","audio-keyboard-response","9","144112","0.0-0.0-1.1-0.1-1.4-0.4","auditory","InnoA03E02","null","","","","","","","","",""
"null","digits/nine.wav","","audio-keyboard-response","10","145041","0.0-0.0-1.1-0.1-1.5-0.5","auditory","InnoA03E02","null","","","","","","","","",""
"null","digits/four.wav","","audio-keyboard-response","11","146051","0.0-0.0-1.1-0.1-1.6-0.6","auditory","InnoA03E02","null","","","","","","","","",""
"17905","<div class = numbox><p>Wie lauteten die Zahlen <b>in umgekehrter Reihenfolge</b>?<br> Antwort mit Enter-Taste best&auml;tigen.</p><button id = button_1 class = ""square num-button"" onclick = ""recordClick(this)""><div class = content><div class = numbers>1</div></div></button><button id = button_2 class = ""square num-button"" onclick = ""recordClick(this)""><div class = content><div class = numbers>2</div></div></button><button id = button_3 class = ""square num-button"" onclick = ""recordClick(this)""><div class = content><div class = numbers>3</div></div></button><button id = button_4 class = ""square num-button"" onclick = ""recordClick(this)""><div class = content><div class = numbers>4</div></div></button><button id = button_5 class = ""square num-button"" onclick = ""recordClick(this)""><div class = content><div class = numbers>5</div></div></button><button id = button_6 class = ""square num-button"" onclick = ""recordClick(this)""><div class = content><div class = numbers>6</div></div></button><button id = button_7 class = ""square num-button"" onclick = ""recordClick(this)""><div class = content><div class = numbers>7</div></div></button><button id = button_8 class = ""square num-button"" onclick = ""recordClick(this)""><div class = content><div class = numbers>8</div></div></button><button id = button_9 class = ""square num-button"" onclick = ""recordClick(this)""><div class = content><div class = numbers>9</div></div></button><button class = clear_button id = ""ClearButton"" onclick = ""clearResponse()"">L&ouml;schen</button><p><u><b>Ihre Antwort:</b></u></p><div id=echoed_txt style=""font-size: 30px; color:blue;""><b></b></div></div>","","html-keyboard-response","12","164207","0.0-0.0-1.1-0.1-2.1","auditory","InnoA03E02","13","BDS-RESPONSE","4","4,9,3,7","4,9,3,7","1","3,4,5,6,6,5,6,6,5,5,6,6","3","1",""
"","","","call-function","13","164207","0.0-0.0-1.1-0.1-3.1","auditory","InnoA03E02","","","","","","","","","",""
"2296","<p>Test 3 von 12</p>","0","html-button-response","14","166504","0.0-0.0-1.2-0.2-0.2","auditory","InnoA03E02","","","","","","","","","",""
"null","digits/one.wav","","audio-keyboard-response","15","167875","0.0-0.0-1.2-0.2-1.7-0.7","auditory","InnoA03E02","null","","","","","","","","",""
"null","digits/three.wav","","audio-keyboard-response","16","168877","0.0-0.0-1.2-0.2-1.8-0.8","auditory","InnoA03E02","null","","","","","","","","",""
"null","digits/nine.wav","","audio-keyboard-response","17","169806","0.0-0.0-1.2-0.2-1.9-0.9","auditory","InnoA03E02","null","","","","","","","","",""
"null","digits/five.wav","","audio-keyboard-response","18","170845","0.0-0.0-1.2-0.2-1.10-0.10","auditory","InnoA03E02","null","","","","","","","","",""
"null","digits/two.wav","","audio-keyboard-response","19","171893","0.0-0.0-1.2-0.2-1.11-0.11","auditory","InnoA03E02","null","","","","","","","","",""
"8828","<div class = numbox><p>Wie lauteten die Zahlen <b>in umgekehrter Reihenfolge</b>?<br> Antwort mit Enter-Taste best&auml;tigen.</p><button id = button_1 class = ""square num-button"" onclick = ""recordClick(this)""><div class = content><div class = numbers>1</div></div></button><button id = button_2 class = ""square num-button"" onclick = ""recordClick(this)""><div class = content><div class = numbers>2</div></div></button><button id = button_3 class = ""square num-button"" onclick = ""recordClick(this)""><div class = content><div class = numbers>3</div></div></button><button id = button_4 class = ""square num-button"" onclick = ""recordClick(this)""><div class = content><div class = numbers>4</div></div></button><button id = button_5 class = ""square num-button"" onclick = ""recordClick(this)""><div class = content><div class = numbers>5</div></div></button><button id = button_6 class = ""square num-button"" onclick = ""recordClick(this)""><div class = content><div class = numbers>6</div></div></button><button id = button_7 class = ""square num-button"" onclick = ""recordClick(this)""><div class = content><div class = numbers>7</div></div></button><button id = button_8 class = ""square num-button"" onclick = ""recordClick(this)""><div class = content><div class = numbers>8</div></div></button><button id = button_9 class = ""square num-button"" onclick = ""recordClick(this)""><div class = content><div class = numbers>9</div></div></button><button class = clear_button id = ""ClearButton"" onclick = ""clearResponse()"">L&ouml;schen</button><p><u><b>Ihre Antwort:</b></u></p><div id=echoed_txt style=""font-size: 30px; color:blue;""><b></b></div></div>","","html-keyboard-response","20","180972","0.0-0.0-1.2-0.2-2.2","auditory","InnoA03E02","13","BDS-RESPONSE","5","2,5,9,3,1","2,5,9,3,1","1","3,4,5,6,6,5,6,6,5,5,6,6","4","2",""
"","","","call-function","21","180972","0.0-0.0-1.2-0.2-3.2","auditory","InnoA03E02","","","","","","","","","",""
"3711","<p>Test 4 von 12</p>","0","html-button-response","22","184684","0.0-0.0-1.3-0.3-0.3","auditory","InnoA03E02","","","","","","","","","",""
"null","digits/four.wav","","audio-keyboard-response","23","185944","0.0-0.0-1.3-0.3-1.12-0.12","auditory","InnoA03E02","null","","","","","","","","",""
"null","digits/three.wav","","audio-keyboard-response","24","186945","0.0-0.0-1.3-0.3-1.13-0.13","auditory","InnoA03E02","null","","","","","","","","",""
"null","digits/nine.wav","","audio-keyboard-response","25","187874","0.0-0.0-1.3-0.3-1.14-0.14","auditory","InnoA03E02","null","","","","","","","","",""
"null","digits/two.wav","","audio-keyboard-response","26","188922","0.0-0.0-1.3-0.3-1.15-0.15","auditory","InnoA03E02","null","","","","","","","","",""
"null","digits/one.wav","","audio-keyboard-response","27","190042","0.0-0.0-1.3-0.3-1.16-0.16","auditory","InnoA03E02","null","","","","","","","","",""
"null","digits/eight.wav","","audio-keyboard-response","28","190922","0.0-0.0-1.3-0.3-1.17-0.17","auditory","InnoA03E02","null","","","","","","","","",""
"20186","<div class = numbox><p>Wie lauteten die Zahlen <b>in umgekehrter Reihenfolge</b>?<br> Antwort mit Enter-Taste best&auml;tigen.</p><button id = button_1 class = ""square num-button"" onclick = ""recordClick(this)""><div class = content><div class = numbers>1</div></div></button><button id = button_2 class = ""square num-button"" onclick = ""recordClick(this)""><div class = content><div class = numbers>2</div></div></button><button id = button_3 class = ""square num-button"" onclick = ""recordClick(this)""><div class = content><div class = numbers>3</div></div></button><button id = button_4 class = ""square num-button"" onclick = ""recordClick(this)""><div class = content><div class = numbers>4</div></div></button><button id = button_5 class = ""square num-button"" onclick = ""recordClick(this)""><div class = content><div class = numbers>5</div></div></button><button id = button_6 class = ""square num-button"" onclick = ""recordClick(this)""><div class = content><div class = numbers>6</div></div></button><button id = button_7 class = ""square num-button"" onclick = ""recordClick(this)""><div class = content><div class = numbers>7</div></div></button><button id = button_8 class = ""square num-button"" onclick = ""recordClick(this)""><div class = content><div class = numbers>8</div></div></button><button id = button_9 class = ""square num-button"" onclick = ""recordClick(this)""><div class = content><div class = numbers>9</div></div></button><button class = clear_button id = ""ClearButton"" onclick = ""clearResponse()"">L&ouml;schen</button><p><u><b>Ihre Antwort:</b></u></p><div id=echoed_txt style=""font-size: 30px; color:blue;""><b></b></div></div>","","html-keyboard-response","29","211360","0.0-0.0-1.3-0.3-2.3","auditory","InnoA03E02","13","BDS-RESPONSE","6","8,1,9,2,3,4","8,1,2,9,3,4","0","3,4,5,6,6,5,6,6,5,5,6,6","5","3",""
"","","","call-function","30","211360","0.0-0.0-1.3-0.3-3.3","auditory","InnoA03E02","","","","","","","","","",""
"1440","<p>Test 5 von 12</p>","0","html-button-response","31","212800","0.0-0.0-1.4-0.4-0.4","auditory","InnoA03E02","","","","","","","","","",""
"null","digits/three.wav","","audio-keyboard-response","32","214053","0.0-0.0-1.4-0.4-1.18-0.18","auditory","InnoA03E02","null","","","","","","","","",""
"null","digits/five.wav","","audio-keyboard-response","33","215092","0.0-0.0-1.4-0.4-1.19-0.19","auditory","InnoA03E02","null","","","","","","","","",""
"null","digits/six.wav","","audio-keyboard-response","34","216139","0.0-0.0-1.4-0.4-1.20-0.20","auditory","InnoA03E02","null","","","","","","","","",""
"null","digits/nine.wav","","audio-keyboard-response","35","217068","0.0-0.0-1.4-0.4-1.21-0.21","auditory","InnoA03E02","null","","","","","","","","",""
"null","digits/seven.wav","","audio-keyboard-response","36","218139","0.0-0.0-1.4-0.4-1.22-0.22","auditory","InnoA03E02","null","","","","","","","","",""
"null","digits/four.wav","","audio-keyboard-response","37","219149","0.0-0.0-1.4-0.4-1.23-0.23","auditory","InnoA03E02","null","","","","","","","","",""
"12959","<div class = numbox><p>Wie lauteten die Zahlen <b>in umgekehrter Reihenfolge</b>?<br> Antwort mit Enter-Taste best&auml;tigen.</p><button id = button_1 class = ""square num-button"" onclick = ""recordClick(this)""><div class = content><div class = numbers>1</div></div></button><button id = button_2 class = ""square num-button"" onclick = ""recordClick(this)""><div class = content><div class = numbers>2</div></div></button><button id = button_3 class = ""square num-button"" onclick = ""recordClick(this)""><div class = content><div class = numbers>3</div></div></button><button id = button_4 class = ""square num-button"" onclick = ""recordClick(this)""><div class = content><div class = numbers>4</div></div></button><button id = button_5 class = ""square num-button"" onclick = ""recordClick(this)""><div class = content><div class = numbers>5</div></div></button><button id = button_6 class = ""square num-button"" onclick = ""recordClick(this)""><div class = content><div class = numbers>6</div></div></button><button id = button_7 class = ""square num-button"" onclick = ""recordClick(this)""><div class = content><div class = numbers>7</div></div></button><button id = button_8 class = ""square num-button"" onclick = ""recordClick(this)""><div class = content><div class = numbers>8</div></div></button><button id = button_9 class = ""square num-button"" onclick = ""recordClick(this)""><div class = content><div class = numbers>9</div></div></button><button class = clear_button id = ""ClearButton"" onclick = ""clearResponse()"">L&ouml;schen</button><p><u><b>Ihre Antwort:</b></u></p><div id=echoed_txt style=""font-size: 30px; color:blue;""><b></b></div></div>","","html-keyboard-response","38","232359","0.0-0.0-1.4-0.4-2.4","auditory","InnoA03E02","13","BDS-RESPONSE","6","4,7,9,6,3","4,7,9,6,5,3","0","3,4,5,6,6,5,6,6,5,5,6,6","5","3",""
"","","","call-function","39","232359","0.0-0.0-1.4-0.4-3.4","auditory","InnoA03E02","","","","","","","","","",""
"1537","<p>Test 6 von 12</p>","0","html-button-response","40","233897","0.0-0.0-1.5-0.5-0.5","auditory","InnoA03E02","","","","","","","","","",""
"null","digits/one.wav","","audio-keyboard-response","41","235267","0.0-0.0-1.5-0.5-1.24-0.24","auditory","InnoA03E02","null","","","","","","","","",""
"null","digits/eight.wav","","audio-keyboard-response","42","236147","0.0-0.0-1.5-0.5-1.25-0.25","auditory","InnoA03E02","null","","","","","","","","",""
"null","digits/nine.wav","","audio-keyboard-response","43","237076","0.0-0.0-1.5-0.5-1.26-0.26","auditory","InnoA03E02","null","","","","","","","","",""
"null","digits/five.wav","","audio-keyboard-response","44","238115","0.0-0.0-1.5-0.5-1.27-0.27","auditory","InnoA03E02","null","","","","","","","","",""
"null","digits/four.wav","","audio-keyboard-response","45","239125","0.0-0.0-1.5-0.5-1.28-0.28","auditory","InnoA03E02","null","","","","","","","","",""
"11850","<div class = numbox><p>Wie lauteten die Zahlen <b>in umgekehrter Reihenfolge</b>?<br> Antwort mit Enter-Taste best&auml;tigen.</p><button id = button_1 class = ""square num-button"" onclick = ""recordClick(this)""><div class = content><div class = numbers>1</div></div></button><button id = button_2 class = ""square num-button"" onclick = ""recordClick(this)""><div class = content><div class = numbers>2</div></div></button><button id = button_3 class = ""square num-button"" onclick = ""recordClick(this)""><div class = content><div class = numbers>3</div></div></button><button id = button_4 class = ""square num-button"" onclick = ""recordClick(this)""><div class = content><div class = numbers>4</div></div></button><button id = button_5 class = ""square num-button"" onclick = ""recordClick(this)""><div class = content><div class = numbers>5</div></div></button><button id = button_6 class = ""square num-button"" onclick = ""recordClick(this)""><div class = content><div class = numbers>6</div></div></button><button id = button_7 class = ""square num-button"" onclick = ""recordClick(this)""><div class = content><div class = numbers>7</div></div></button><button id = button_8 class = ""square num-button"" onclick = ""recordClick(this)""><div class = content><div class = numbers>8</div></div></button><button id = button_9 class = ""square num-button"" onclick = ""recordClick(this)""><div class = content><div class = numbers>9</div></div></button><button class = clear_button id = ""ClearButton"" onclick = ""clearResponse()"">L&ouml;schen</button><p><u><b>Ihre Antwort:</b></u></p><div id=echoed_txt style=""font-size: 30px; color:blue;""><b></b></div></div>","","html-keyboard-response","46","251226","0.0-0.0-1.5-0.5-2.5","auditory","InnoA03E02","13","BDS-RESPONSE","5","4,5,9,8,1","4,5,9,8,1","1","3,4,5,6,6,5,6,6,5,5,6,6","5","3",""
"","","","call-function","47","251226","0.0-0.0-1.5-0.5-3.5","auditory","InnoA03E02","","","","","","","","","",""
"7850","<p>Test 7 von 12</p>","0","html-button-response","48","259077","0.0-0.0-1.6-0.6-0.6","auditory","InnoA03E02","","","","","","","","","",""
"null","digits/four.wav","","audio-keyboard-response","49","260337","0.0-0.0-1.6-0.6-1.29-0.29","auditory","InnoA03E02","null","","","","","","","","",""
"null","digits/one.wav","","audio-keyboard-response","50","261457","0.0-0.0-1.6-0.6-1.30-0.30","auditory","InnoA03E02","null","","","","","","","","",""
"null","digits/three.wav","","audio-keyboard-response","51","262459","0.0-0.0-1.6-0.6-1.31-0.31","auditory","InnoA03E02","null","","","","","","","","",""
"null","digits/six.wav","","audio-keyboard-response","52","263507","0.0-0.0-1.6-0.6-1.32-0.32","auditory","InnoA03E02","null","","","","","","","","",""
"null","digits/five.wav","","audio-keyboard-response","53","264546","0.0-0.0-1.6-0.6-1.33-0.33","auditory","InnoA03E02","null","","","","","","","","",""
"null","digits/eight.wav","","audio-keyboard-response","54","265426","0.0-0.0-1.6-0.6-1.34-0.34","auditory","InnoA03E02","null","","","","","","","","",""
"19680","<div class = numbox><p>Wie lauteten die Zahlen <b>in umgekehrter Reihenfolge</b>?<br> Antwort mit Enter-Taste best&auml;tigen.</p><button id = button_1 class = ""square num-button"" onclick = ""recordClick(this)""><div class = content><div class = numbers>1</div></div></button><button id = button_2 class = ""square num-button"" onclick = ""recordClick(this)""><div class = content><div class = numbers>2</div></div></button><button id = button_3 class = ""square num-button"" onclick = ""recordClick(this)""><div class = content><div class = numbers>3</div></div></button><button id = button_4 class = ""square num-button"" onclick = ""recordClick(this)""><div class = content><div class = numbers>4</div></div></button><button id = button_5 class = ""square num-button"" onclick = ""recordClick(this)""><div class = content><div class = numbers>5</div></div></button><button id = button_6 class = ""square num-button"" onclick = ""recordClick(this)""><div class = content><div class = numbers>6</div></div></button><button id = button_7 class = ""square num-button"" onclick = ""recordClick(this)""><div class = content><div class = numbers>7</div></div></button><button id = button_8 class = ""square num-button"" onclick = ""recordClick(this)""><div class = content><div class = numbers>8</div></div></button><button id = button_9 class = ""square num-button"" onclick = ""recordClick(this)""><div class = content><div class = numbers>9</div></div></button><button class = clear_button id = ""ClearButton"" onclick = ""clearResponse()"">L&ouml;schen</button><p><u><b>Ihre Antwort:</b></u></p><div id=echoed_txt style=""font-size: 30px; color:blue;""><b></b></div></div>","","html-keyboard-response","55","285357","0.0-0.0-1.6-0.6-2.6","auditory","InnoA03E02","13","BDS-RESPONSE","6","8,5,3,1,4","8,5,6,3,1,4","0","3,4,5,6,6,5,6,6,5,5,6,6","5","4",""
"","","","call-function","56","285357","0.0-0.0-1.6-0.6-3.6","auditory","InnoA03E02","","","","","","","","","",""
"3050","<p>Test 8 von 12</p>","0","html-button-response","57","288407","0.0-0.0-1.7-0.7-0.7","auditory","InnoA03E02","","","","","","","","","",""
"null","digits/two.wav","","audio-keyboard-response","58","289706","0.0-0.0-1.7-0.7-1.35-0.35","auditory","InnoA03E02","null","","","","","","","","",""
"null","digits/five.wav","","audio-keyboard-response","59","290745","0.0-0.0-1.7-0.7-1.36-0.36","auditory","InnoA03E02","null","","","","","","","","",""
"null","digits/four.wav","","audio-keyboard-response","60","291755","0.0-0.0-1.7-0.7-1.37-0.37","auditory","InnoA03E02","null","","","","","","","","",""
"null","digits/seven.wav","","audio-keyboard-response","61","292826","0.0-0.0-1.7-0.7-1.38-0.38","auditory","InnoA03E02","null","","","","","","","","",""
"null","digits/three.wav","","audio-keyboard-response","62","293827","0.0-0.0-1.7-0.7-1.39-0.39","auditory","InnoA03E02","null","","","","","","","","",""
"null","digits/nine.wav","","audio-keyboard-response","63","294756","0.0-0.0-1.7-0.7-1.40-0.40","auditory","InnoA03E02","null","","","","","","","","",""
"16829","<div class = numbox><p>Wie lauteten die Zahlen <b>in umgekehrter Reihenfolge</b>?<br> Antwort mit Enter-Taste best&auml;tigen.</p><button id = button_1 class = ""square num-button"" onclick = ""recordClick(this)""><div class = content><div class = numbers>1</div></div></button><button id = button_2 class = ""square num-button"" onclick = ""recordClick(this)""><div class = content><div class = numbers>2</div></div></button><button id = button_3 class = ""square num-button"" onclick = ""recordClick(this)""><div class = content><div class = numbers>3</div></div></button><button id = button_4 class = ""square num-button"" onclick = ""recordClick(this)""><div class = content><div class = numbers>4</div></div></button><button id = button_5 class = ""square num-button"" onclick = ""recordClick(this)""><div class = content><div class = numbers>5</div></div></button><button id = button_6 class = ""square num-button"" onclick = ""recordClick(this)""><div class = content><div class = numbers>6</div></div></button><button id = button_7 class = ""square num-button"" onclick = ""recordClick(this)""><div class = content><div class = numbers>7</div></div></button><button id = button_8 class = ""square num-button"" onclick = ""recordClick(this)""><div class = content><div class = numbers>8</div></div></button><button id = button_9 class = ""square num-button"" onclick = ""recordClick(this)""><div class = content><div class = numbers>9</div></div></button><button class = clear_button id = ""ClearButton"" onclick = ""clearResponse()"">L&ouml;schen</button><p><u><b>Ihre Antwort:</b></u></p><div id=echoed_txt style=""font-size: 30px; color:blue;""><b></b></div></div>","","html-keyboard-response","64","311838","0.0-0.0-1.7-0.7-2.7","auditory","InnoA03E02","13","BDS-RESPONSE","6","9,3,7,5,2","9,3,7,4,5,2","0","3,4,5,6,6,5,6,6,5,5,6,6","5","4",""
"","","","call-function","65","311838","0.0-0.0-1.7-0.7-3.7","auditory","InnoA03E02","","","","","","","","","",""
"7682","<p>Test 9 von 12</p>","0","html-button-response","66","319521","0.0-0.0-1.8-0.8-0.8","auditory","InnoA03E02","","","","","","","","","",""
"null","digits/seven.wav","","audio-keyboard-response","67","320842","0.0-0.0-1.8-0.8-1.41-0.41","auditory","InnoA03E02","null","","","","","","","","",""
"null","digits/nine.wav","","audio-keyboard-response","68","321770","0.0-0.0-1.8-0.8-1.42-0.42","auditory","InnoA03E02","null","","","","","","","","",""
"null","digits/two.wav","","audio-keyboard-response","69","322818","0.0-0.0-1.8-0.8-1.43-0.43","auditory","InnoA03E02","null","","","","","","","","",""
"null","digits/five.wav","","audio-keyboard-response","70","323857","0.0-0.0-1.8-0.8-1.44-0.44","auditory","InnoA03E02","null","","","","","","","","",""
"null","digits/four.wav","","audio-keyboard-response","71","324867","0.0-0.0-1.8-0.8-1.45-0.45","auditory","InnoA03E02","null","","","","","","","","",""
"15407","<div class = numbox><p>Wie lauteten die Zahlen <b>in umgekehrter Reihenfolge</b>?<br> Antwort mit Enter-Taste best&auml;tigen.</p><button id = button_1 class = ""square num-button"" onclick = ""recordClick(this)""><div class = content><div class = numbers>1</div></div></button><button id = button_2 class = ""square num-button"" onclick = ""recordClick(this)""><div class = content><div class = numbers>2</div></div></button><button id = button_3 class = ""square num-button"" onclick = ""recordClick(this)""><div class = content><div class = numbers>3</div></div></button><button id = button_4 class = ""square num-button"" onclick = ""recordClick(this)""><div class = content><div class = numbers>4</div></div></button><button id = button_5 class = ""square num-button"" onclick = ""recordClick(this)""><div class = content><div class = numbers>5</div></div></button><button id = button_6 class = ""square num-button"" onclick = ""recordClick(this)""><div class = content><div class = numbers>6</div></div></button><button id = button_7 class = ""square num-button"" onclick = ""recordClick(this)""><div class = content><div class = numbers>7</div></div></button><button id = button_8 class = ""square num-button"" onclick = ""recordClick(this)""><div class = content><div class = numbers>8</div></div></button><button id = button_9 class = ""square num-button"" onclick = ""recordClick(this)""><div class = content><div class = numbers>9</div></div></button><button class = clear_button id = ""ClearButton"" onclick = ""clearResponse()"">L&ouml;schen</button><p><u><b>Ihre Antwort:</b></u></p><div id=echoed_txt style=""font-size: 30px; color:blue;""><b></b></div></div>","","html-keyboard-response","72","340527","0.0-0.0-1.8-0.8-2.8","auditory","InnoA03E02","13","BDS-RESPONSE","5","4,5,3,9,7","4,5,2,9,7","0","3,4,5,6,6,5,6,6,5,5,6,6","5","4",""
"","","","call-function","73","340527","0.0-0.0-1.8-0.8-3.8","auditory","InnoA03E02","","","","","","","","","",""
"8863","<p>Test 10 von 12</p>","0","html-button-response","74","349390","0.0-0.0-1.9-0.9-0.9","auditory","InnoA03E02","","","","","","","","","",""
"null","digits/one.wav","","audio-keyboard-response","75","350761","0.0-0.0-1.9-0.9-1.46-0.46","auditory","InnoA03E02","null","","","","","","","","",""
"null","digits/three.wav","","audio-keyboard-response","76","351763","0.0-0.0-1.9-0.9-1.47-0.47","auditory","InnoA03E02","null","","","","","","","","",""
"null","digits/four.wav","","audio-keyboard-response","77","352773","0.0-0.0-1.9-0.9-1.48-0.48","auditory","InnoA03E02","null","","","","","","","","",""
"null","digits/five.wav","","audio-keyboard-response","78","353812","0.0-0.0-1.9-0.9-1.49-0.49","auditory","InnoA03E02","null","","","","","","","","",""
"null","digits/seven.wav","","audio-keyboard-response","79","354883","0.0-0.0-1.9-0.9-1.50-0.50","auditory","InnoA03E02","null","","","","","","","","",""
"13877","<div class = numbox><p>Wie lauteten die Zahlen <b>in umgekehrter Reihenfolge</b>?<br> Antwort mit Enter-Taste best&auml;tigen.</p><button id = button_1 class = ""square num-button"" onclick = ""recordClick(this)""><div class = content><div class = numbers>1</div></div></button><button id = button_2 class = ""square num-button"" onclick = ""recordClick(this)""><div class = content><div class = numbers>2</div></div></button><button id = button_3 class = ""square num-button"" onclick = ""recordClick(this)""><div class = content><div class = numbers>3</div></div></button><button id = button_4 class = ""square num-button"" onclick = ""recordClick(this)""><div class = content><div class = numbers>4</div></div></button><button id = button_5 class = ""square num-button"" onclick = ""recordClick(this)""><div class = content><div class = numbers>5</div></div></button><button id = button_6 class = ""square num-button"" onclick = ""recordClick(this)""><div class = content><div class = numbers>6</div></div></button><button id = button_7 class = ""square num-button"" onclick = ""recordClick(this)""><div class = content><div class = numbers>7</div></div></button><button id = button_8 class = ""square num-button"" onclick = ""recordClick(this)""><div class = content><div class = numbers>8</div></div></button><button id = button_9 class = ""square num-button"" onclick = ""recordClick(this)""><div class = content><div class = numbers>9</div></div></button><button class = clear_button id = ""ClearButton"" onclick = ""clearResponse()"">L&ouml;schen</button><p><u><b>Ihre Antwort:</b></u></p><div id=echoed_txt style=""font-size: 30px; color:blue;""><b></b></div></div>","","html-keyboard-response","80","369011","0.0-0.0-1.9-0.9-2.9","auditory","InnoA03E02","13","BDS-RESPONSE","5","7,5,4,3,1","7,5,4,3,1","1","3,4,5,6,6,5,6,6,5,5,6,6","5","4",""
"","","","call-function","81","369011","0.0-0.0-1.9-0.9-3.9","auditory","InnoA03E02","","","","","","","","","",""
"6302","<p>Test 11 von 12</p>","0","html-button-response","82","375313","0.0-0.0-1.10-0.10-0.10","auditory","InnoA03E02","","","","","","","","","",""
"null","digits/eight.wav","","audio-keyboard-response","83","376443","0.0-0.0-1.10-0.10-1.51-0.51","auditory","InnoA03E02","null","","","","","","","","",""
"null","digits/three.wav","","audio-keyboard-response","84","377445","0.0-0.0-1.10-0.10-1.52-0.52","auditory","InnoA03E02","null","","","","","","","","",""
"null","digits/one.wav","","audio-keyboard-response","85","378565","0.0-0.0-1.10-0.10-1.53-0.53","auditory","InnoA03E02","null","","","","","","","","",""
"null","digits/four.wav","","audio-keyboard-response","86","379575","0.0-0.0-1.10-0.10-1.54-0.54","auditory","InnoA03E02","null","","","","","","","","",""
"null","digits/two.wav","","audio-keyboard-response","87","380623","0.0-0.0-1.10-0.10-1.55-0.55","auditory","InnoA03E02","null","","","","","","","","",""
"null","digits/six.wav","","audio-keyboard-response","88","381671","0.0-0.0-1.10-0.10-1.56-0.56","auditory","InnoA03E02","null","","","","","","","","",""
"10332","<div class = numbox><p>Wie lauteten die Zahlen <b>in umgekehrter Reihenfolge</b>?<br> Antwort mit Enter-Taste best&auml;tigen.</p><button id = button_1 class = ""square num-button"" onclick = ""recordClick(this)""><div class = content><div class = numbers>1</div></div></button><button id = button_2 class = ""square num-button"" onclick = ""recordClick(this)""><div class = content><div class = numbers>2</div></div></button><button id = button_3 class = ""square num-button"" onclick = ""recordClick(this)""><div class = content><div class = numbers>3</div></div></button><button id = button_4 class = ""square num-button"" onclick = ""recordClick(this)""><div class = content><div class = numbers>4</div></div></button><button id = button_5 class = ""square num-button"" onclick = ""recordClick(this)""><div class = content><div class = numbers>5</div></div></button><button id = button_6 class = ""square num-button"" onclick = ""recordClick(this)""><div class = content><div class = numbers>6</div></div></button><button id = button_7 class = ""square num-button"" onclick = ""recordClick(this)""><div class = content><div class = numbers>7</div></div></button><button id = button_8 class = ""square num-button"" onclick = ""recordClick(this)""><div class = content><div class = numbers>8</div></div></button><button id = button_9 class = ""square num-button"" onclick = ""recordClick(this)""><div class = content><div class = numbers>9</div></div></button><button class = clear_button id = ""ClearButton"" onclick = ""clearResponse()"">L&ouml;schen</button><p><u><b>Ihre Antwort:</b></u></p><div id=echoed_txt style=""font-size: 30px; color:blue;""><b></b></div></div>","","html-keyboard-response","89","392256","0.0-0.0-1.10-0.10-2.10","auditory","InnoA03E02","13","BDS-RESPONSE","6","6,2,4,1,8","6,2,4,1,3,8","0","3,4,5,6,6,5,6,6,5,5,6,6","5","5",""
"","","","call-function","90","392256","0.0-0.0-1.10-0.10-3.10","auditory","InnoA03E02","","","","","","","","","",""
"7592","<p>Test 12 von 12</p>","0","html-button-response","91","399848","0.0-0.0-1.11-0.11-0.11","auditory","InnoA03E02","","","","","","","","","",""
"null","digits/six.wav","","audio-keyboard-response","92","401147","0.0-0.0-1.11-0.11-1.57-0.57","auditory","InnoA03E02","null","","","","","","","","",""
"null","digits/four.wav","","audio-keyboard-response","93","402157","0.0-0.0-1.11-0.11-1.58-0.58","auditory","InnoA03E02","null","","","","","","","","",""
"null","digits/three.wav","","audio-keyboard-response","94","403159","0.0-0.0-1.11-0.11-1.59-0.59","auditory","InnoA03E02","null","","","","","","","","",""
"null","digits/nine.wav","","audio-keyboard-response","95","404088","0.0-0.0-1.11-0.11-1.60-0.60","auditory","InnoA03E02","null","","","","","","","","",""
"null","digits/eight.wav","","audio-keyboard-response","96","404967","0.0-0.0-1.11-0.11-1.61-0.61","auditory","InnoA03E02","null","","","","","","","","",""
"null","digits/five.wav","","audio-keyboard-response","97","406006","0.0-0.0-1.11-0.11-1.62-0.62","auditory","InnoA03E02","null","","","","","","","","",""
"12634","<div class = numbox><p>Wie lauteten die Zahlen <b>in umgekehrter Reihenfolge</b>?<br> Antwort mit Enter-Taste best&auml;tigen.</p><button id = button_1 class = ""square num-button"" onclick = ""recordClick(this)""><div class = content><div class = numbers>1</div></div></button><button id = button_2 class = ""square num-button"" onclick = ""recordClick(this)""><div class = content><div class = numbers>2</div></div></button><button id = button_3 class = ""square num-button"" onclick = ""recordClick(this)""><div class = content><div class = numbers>3</div></div></button><button id = button_4 class = ""square num-button"" onclick = ""recordClick(this)""><div class = content><div class = numbers>4</div></div></button><button id = button_5 class = ""square num-button"" onclick = ""recordClick(this)""><div class = content><div class = numbers>5</div></div></button><button id = button_6 class = ""square num-button"" onclick = ""recordClick(this)""><div class = content><div class = numbers>6</div></div></button><button id = button_7 class = ""square num-button"" onclick = ""recordClick(this)""><div class = content><div class = numbers>7</div></div></button><button id = button_8 class = ""square num-button"" onclick = ""recordClick(this)""><div class = content><div class = numbers>8</div></div></button><button id = button_9 class = ""square num-button"" onclick = ""recordClick(this)""><div class = content><div class = numbers>9</div></div></button><button class = clear_button id = ""ClearButton"" onclick = ""clearResponse()"">L&ouml;schen</button><p><u><b>Ihre Antwort:</b></u></p><div id=echoed_txt style=""font-size: 30px; color:blue;""><b></b></div></div>","","html-keyboard-response","98","418891","0.0-0.0-1.11-0.11-2.11","auditory","InnoA03E02","13","BDS-RESPONSE","6","5,8,9,3,4,6","5,8,9,3,4,6","1","3,4,5,6,6,5,6,6,5,5,6,6","5","5",""
"","","","call-function","99","418891","0.0-0.0-1.11-0.11-3.11","auditory","InnoA03E02","","","","","","","","","",""
"2338","<p>Die Aufgabe ist erledigt! Vielen Dank!</p><p>Die Gesamtzahl Ihrer korrekten Antworten ist <b>6</b>.</p>","0","html-button-response","100","421233","0.0-1.0","auditory","InnoA03E02","","","","","","","","","",""
