"rt","stimulus","button_pressed","trial_type","trial_index","time_elapsed","internal_node_id","BDS_modality","subject","key_press","designation","span","answer","correct","was_correct","spanHistory","max_span","total_correct","value"
"2150","<p>Willkommen bei der <b>Ziffernspannen-Aufgabe.</b></p><p>Bei jedem Versuch h&ouml;ren Sie eine Ziffernfolge und sollen diese in umgekehrter Reihenfolge wiedergeben.</p><p>Zum Beispiel, falls sie die Zahlen <b style=""color:blue;"">Eins</b>, <b style=""color:blue;"">Zwei</b>, <b style=""color:blue;"">Drei</b>, geh&ouml;rt haben, dann antworten Sie mit <b style=""color:blue;"">3</b>, <b style=""color:blue;"">2</b>, <b style=""color:blue;"">1</b></p><p>Um eine hohe Qualit&auml;t der Daten zu gew&auml;hrleisten, ist es sehr wichtig, dass Sie keine Ged&auml;chtnisst&uuml;tze (z.B. Stift und Papier) verwenden.<br>Bitte bearbeiten Sie die Aufgabe ausschlie&#223;lich im Kopf.</p><p>Es werden insgesamt 12 Durchl&auml;ufe gemacht. Die Teilname dauert etwa 10 Minuten. Am Ende sehen sie Ihre erreichte Punktzahl.</p>","0","html-button-response","0","2151","0.0-0.0-0.0","auditory","A03F69","","","","","","","","","",""
"6978","<p>Test 1 von 12</p>","0","html-button-response","1","9129","0.0-0.0-1.0-0.0-0.0","auditory","A03F69","","","","","","","","","",""
"null","digits/eight.wav","","audio-keyboard-response","2","10326","0.0-0.0-1.0-0.0-1.0-0.0","auditory","A03F69","null","","","","","","","","",""
"null","digits/four.wav","","audio-keyboard-response","3","11339","0.0-0.0-1.0-0.0-1.1-0.1","auditory","A03F69","null","","","","","","","","",""
"null","digits/one.wav","","audio-keyboard-response","4","12460","0.0-0.0-1.0-0.0-1.2-0.2","auditory","A03F69","null","","","","","","","","",""
"5598","<div class = numbox><p>Wie lauteten die Zahlen <b>in umgekehrter Reihenfolge</b>?<br> Antwort mit Enter-Taste best&auml;tigen.</p><button id = button_1 class = ""square num-button"" onclick = ""recordClick(this)""><div class = content><div class = numbers>1</div></div></button><button id = button_2 class = ""square num-button"" onclick = ""recordClick(this)""><div class = content><div class = numbers>2</div></div></button><button id = button_3 class = ""square num-button"" onclick = ""recordClick(this)""><div class = content><div class = numbers>3</div></div></button><button id = button_4 class = ""square num-button"" onclick = ""recordClick(this)""><div class = content><div class = numbers>4</div></div></button><button id = button_5 class = ""square num-button"" onclick = ""recordClick(this)""><div class = content><div class = numbers>5</div></div></button><button id = button_6 class = ""square num-button"" onclick = ""recordClick(this)""><div class = content><div class = numbers>6</div></div></button><button id = button_7 class = ""square num-button"" onclick = ""recordClick(this)""><div class = content><div class = numbers>7</div></div></button><button id = button_8 class = ""square num-button"" onclick = ""recordClick(this)""><div class = content><div class = numbers>8</div></div></button><button id = button_9 class = ""square num-button"" onclick = ""recordClick(this)""><div class = content><div class = numbers>9</div></div></button><button class = clear_button id = ""ClearButton"" onclick = ""clearResponse()"">L&ouml;schen</button><p><u><b>Ihre Antwort:</b></u></p><div id=echoed_txt style=""font-size: 30px; color:blue;""><b></b></div></div>","","html-keyboard-response","5","18311","0.0-0.0-1.0-0.0-2.0","auditory","A03F69","13","BDS-RESPONSE","3","1,4,8","1,4,8","1","3,4,5,6,7,7,8,8,7,8,9,9","0","0",""
"","","","call-function","6","18311","0.0-0.0-1.0-0.0-3.0","auditory","A03F69","","","","","","","","","",""
"5631","<p>Test 2 von 12</p>","0","html-button-response","7","23944","0.0-0.0-1.1-0.1-0.1","auditory","A03F69","","","","","","","","","",""
"null","digits/nine.wav","","audio-keyboard-response","8","25120","0.0-0.0-1.1-0.1-1.3-0.3","auditory","A03F69","null","","","","","","","","",""
"null","digits/seven.wav","","audio-keyboard-response","9","26189","0.0-0.0-1.1-0.1-1.4-0.4","auditory","A03F69","null","","","","","","","","",""
"null","digits/six.wav","","audio-keyboard-response","10","27233","0.0-0.0-1.1-0.1-1.5-0.5","auditory","A03F69","null","","","","","","","","",""
"null","digits/four.wav","","audio-keyboard-response","11","28246","0.0-0.0-1.1-0.1-1.6-0.6","auditory","A03F69","null","","","","","","","","",""
"6353","<div class = numbox><p>Wie lauteten die Zahlen <b>in umgekehrter Reihenfolge</b>?<br> Antwort mit Enter-Taste best&auml;tigen.</p><button id = button_1 class = ""square num-button"" onclick = ""recordClick(this)""><div class = content><div class = numbers>1</div></div></button><button id = button_2 class = ""square num-button"" onclick = ""recordClick(this)""><div class = content><div class = numbers>2</div></div></button><button id = button_3 class = ""square num-button"" onclick = ""recordClick(this)""><div class = content><div class = numbers>3</div></div></button><button id = button_4 class = ""square num-button"" onclick = ""recordClick(this)""><div class = content><div class = numbers>4</div></div></button><button id = button_5 class = ""square num-button"" onclick = ""recordClick(this)""><div class = content><div class = numbers>5</div></div></button><button id = button_6 class = ""square num-button"" onclick = ""recordClick(this)""><div class = content><div class = numbers>6</div></div></button><button id = button_7 class = ""square num-button"" onclick = ""recordClick(this)""><div class = content><div class = numbers>7</div></div></button><button id = button_8 class = ""square num-button"" onclick = ""recordClick(this)""><div class = content><div class = numbers>8</div></div></button><button id = button_9 class = ""square num-button"" onclick = ""recordClick(this)""><div class = content><div class = numbers>9</div></div></button><button class = clear_button id = ""ClearButton"" onclick = ""clearResponse()"">L&ouml;schen</button><p><u><b>Ihre Antwort:</b></u></p><div id=echoed_txt style=""font-size: 30px; color:blue;""><b></b></div></div>","","html-keyboard-response","12","34852","0.0-0.0-1.1-0.1-2.1","auditory","A03F69","13","BDS-RESPONSE","4","4,6,7,9","4,6,7,9","1","3,4,5,6,7,7,8,8,7,8,9,9","3","1",""
"","","","call-function","13","34853","0.0-0.0-1.1-0.1-3.1","auditory","A03F69","","","","","","","","","",""
"1320","<p>Test 3 von 12</p>","0","html-button-response","14","36174","0.0-0.0-1.2-0.2-0.2","auditory","A03F69","","","","","","","","","",""
"null","digits/three.wav","","audio-keyboard-response","15","37430","0.0-0.0-1.2-0.2-1.7-0.7","auditory","A03F69","null","","","","","","","","",""
"null","digits/one.wav","","audio-keyboard-response","16","38552","0.0-0.0-1.2-0.2-1.8-0.8","auditory","A03F69","null","","","","","","","","",""
"null","digits/nine.wav","","audio-keyboard-response","17","39478","0.0-0.0-1.2-0.2-1.9-0.9","auditory","A03F69","null","","","","","","","","",""
"null","digits/five.wav","","audio-keyboard-response","18","40513","0.0-0.0-1.2-0.2-1.10-0.10","auditory","A03F69","null","","","","","","","","",""
"null","digits/eight.wav","","audio-keyboard-response","19","41387","0.0-0.0-1.2-0.2-1.11-0.11","auditory","A03F69","null","","","","","","","","",""
"8537","<div class = numbox><p>Wie lauteten die Zahlen <b>in umgekehrter Reihenfolge</b>?<br> Antwort mit Enter-Taste best&auml;tigen.</p><button id = button_1 class = ""square num-button"" onclick = ""recordClick(this)""><div class = content><div class = numbers>1</div></div></button><button id = button_2 class = ""square num-button"" onclick = ""recordClick(this)""><div class = content><div class = numbers>2</div></div></button><button id = button_3 class = ""square num-button"" onclick = ""recordClick(this)""><div class = content><div class = numbers>3</div></div></button><button id = button_4 class = ""square num-button"" onclick = ""recordClick(this)""><div class = content><div class = numbers>4</div></div></button><button id = button_5 class = ""square num-button"" onclick = ""recordClick(this)""><div class = content><div class = numbers>5</div></div></button><button id = button_6 class = ""square num-button"" onclick = ""recordClick(this)""><div class = content><div class = numbers>6</div></div></button><button id = button_7 class = ""square num-button"" onclick = ""recordClick(this)""><div class = content><div class = numbers>7</div></div></button><button id = button_8 class = ""square num-button"" onclick = ""recordClick(this)""><div class = content><div class = numbers>8</div></div></button><button id = button_9 class = ""square num-button"" onclick = ""recordClick(this)""><div class = content><div class = numbers>9</div></div></button><button class = clear_button id = ""ClearButton"" onclick = ""clearResponse()"">L&ouml;schen</button><p><u><b>Ihre Antwort:</b></u></p><div id=echoed_txt style=""font-size: 30px; color:blue;""><b></b></div></div>","","html-keyboard-response","20","50178","0.0-0.0-1.2-0.2-2.2","auditory","A03F69","13","BDS-RESPONSE","5","8,5,9,1,3","8,5,9,1,3","1","3,4,5,6,7,7,8,8,7,8,9,9","4","2",""
"","","","call-function","21","50178","0.0-0.0-1.2-0.2-3.2","auditory","A03F69","","","","","","","","","",""
"1423","<p>Test 4 von 12</p>","0","html-button-response","22","51602","0.0-0.0-1.3-0.3-0.3","auditory","A03F69","","","","","","","","","",""
"null","digits/seven.wav","","audio-keyboard-response","23","52920","0.0-0.0-1.3-0.3-1.12-0.12","auditory","A03F69","null","","","","","","","","",""
"null","digits/one.wav","","audio-keyboard-response","24","54041","0.0-0.0-1.3-0.3-1.13-0.13","auditory","A03F69","null","","","","","","","","",""
"null","digits/three.wav","","audio-keyboard-response","25","55041","0.0-0.0-1.3-0.3-1.14-0.14","auditory","A03F69","null","","","","","","","","",""
"null","digits/eight.wav","","audio-keyboard-response","26","55916","0.0-0.0-1.3-0.3-1.15-0.15","auditory","A03F69","null","","","","","","","","",""
"null","digits/five.wav","","audio-keyboard-response","27","56951","0.0-0.0-1.3-0.3-1.16-0.16","auditory","A03F69","null","","","","","","","","",""
"null","digits/six.wav","","audio-keyboard-response","28","57996","0.0-0.0-1.3-0.3-1.17-0.17","auditory","A03F69","null","","","","","","","","",""
"18435","<div class = numbox><p>Wie lauteten die Zahlen <b>in umgekehrter Reihenfolge</b>?<br> Antwort mit Enter-Taste best&auml;tigen.</p><button id = button_1 class = ""square num-button"" onclick = ""recordClick(this)""><div class = content><div class = numbers>1</div></div></button><button id = button_2 class = ""square num-button"" onclick = ""recordClick(this)""><div class = content><div class = numbers>2</div></div></button><button id = button_3 class = ""square num-button"" onclick = ""recordClick(this)""><div class = content><div class = numbers>3</div></div></button><button id = button_4 class = ""square num-button"" onclick = ""recordClick(this)""><div class = content><div class = numbers>4</div></div></button><button id = button_5 class = ""square num-button"" onclick = ""recordClick(this)""><div class = content><div class = numbers>5</div></div></button><button id = button_6 class = ""square num-button"" onclick = ""recordClick(this)""><div class = content><div class = numbers>6</div></div></button><button id = button_7 class = ""square num-button"" onclick = ""recordClick(this)""><div class = content><div class = numbers>7</div></div></button><button id = button_8 class = ""square num-button"" onclick = ""recordClick(this)""><div class = content><div class = numbers>8</div></div></button><button id = button_9 class = ""square num-button"" onclick = ""recordClick(this)""><div class = content><div class = numbers>9</div></div></button><button class = clear_button id = ""ClearButton"" onclick = ""clearResponse()"">L&ouml;schen</button><p><u><b>Ihre Antwort:</b></u></p><div id=echoed_txt style=""font-size: 30px; color:blue;""><b></b></div></div>","","html-keyboard-response","29","76684","0.0-0.0-1.3-0.3-2.3","auditory","A03F69","13","BDS-RESPONSE","6","6,5,8,3,1,7","6,5,8,3,1,7","1","3,4,5,6,7,7,8,8,7,8,9,9","5","3",""
"","","","call-function","30","76684","0.0-0.0-1.3-0.3-3.3","auditory","A03F69","","","","","","","","","",""
"1500","<p>Test 5 von 12</p>","0","html-button-response","31","78184","0.0-0.0-1.4-0.4-0.4","auditory","A03F69","","","","","","","","","",""
"null","digits/seven.wav","","audio-keyboard-response","32","79503","0.0-0.0-1.4-0.4-1.18-0.18","auditory","A03F69","null","","","","","","","","",""
"null","digits/one.wav","","audio-keyboard-response","33","80623","0.0-0.0-1.4-0.4-1.19-0.19","auditory","A03F69","null","","","","","","","","",""
"null","digits/six.wav","","audio-keyboard-response","34","81668","0.0-0.0-1.4-0.4-1.20-0.20","auditory","A03F69","null","","","","","","","","",""
"null","digits/three.wav","","audio-keyboard-response","35","82669","0.0-0.0-1.4-0.4-1.21-0.21","auditory","A03F69","null","","","","","","","","",""
"null","digits/eight.wav","","audio-keyboard-response","36","83543","0.0-0.0-1.4-0.4-1.22-0.22","auditory","A03F69","null","","","","","","","","",""
"null","digits/five.wav","","audio-keyboard-response","37","84578","0.0-0.0-1.4-0.4-1.23-0.23","auditory","A03F69","null","","","","","","","","",""
"null","digits/four.wav","","audio-keyboard-response","38","85591","0.0-0.0-1.4-0.4-1.24-0.24","auditory","A03F69","null","","","","","","","","",""
"84648","<div class = numbox><p>Wie lauteten die Zahlen <b>in umgekehrter Reihenfolge</b>?<br> Antwort mit Enter-Taste best&auml;tigen.</p><button id = button_1 class = ""square num-button"" onclick = ""recordClick(this)""><div class = content><div class = numbers>1</div></div></button><button id = button_2 class = ""square num-button"" onclick = ""recordClick(this)""><div class = content><div class = numbers>2</div></div></button><button id = button_3 class = ""square num-button"" onclick = ""recordClick(this)""><div class = content><div class = numbers>3</div></div></button><button id = button_4 class = ""square num-button"" onclick = ""recordClick(this)""><div class = content><div class = numbers>4</div></div></button><button id = button_5 class = ""square num-button"" onclick = ""recordClick(this)""><div class = content><div class = numbers>5</div></div></button><button id = button_6 class = ""square num-button"" onclick = ""recordClick(this)""><div class = content><div class = numbers>6</div></div></button><button id = button_7 class = ""square num-button"" onclick = ""recordClick(this)""><div class = content><div class = numbers>7</div></div></button><button id = button_8 class = ""square num-button"" onclick = ""recordClick(this)""><div class = content><div class = numbers>8</div></div></button><button id = button_9 class = ""square num-button"" onclick = ""recordClick(this)""><div class = content><div class = numbers>9</div></div></button><button class = clear_button id = ""ClearButton"" onclick = ""clearResponse()"">L&ouml;schen</button><p><u><b>Ihre Antwort:</b></u></p><div id=echoed_txt style=""font-size: 30px; color:blue;""><b></b></div></div>","","html-keyboard-response","39","170493","0.0-0.0-1.4-0.4-2.4","auditory","A03F69","13","BDS-RESPONSE","7","4,5,3,8,6,1,7","4,5,8,3,6,1,7","0","3,4,5,6,7,7,8,8,7,8,9,9","6","4",""
"","","","call-function","40","170494","0.0-0.0-1.4-0.4-3.4","auditory","A03F69","","","","","","","","","",""
"20854","<p>Test 6 von 12</p>","0","html-button-response","41","191349","0.0-0.0-1.5-0.5-0.5","auditory","A03F69","","","","","","","","","",""
"null","digits/five.wav","","audio-keyboard-response","42","192634","0.0-0.0-1.5-0.5-1.25-0.25","auditory","A03F69","null","","","","","","","","",""
"null","digits/nine.wav","","audio-keyboard-response","43","193563","0.0-0.0-1.5-0.5-1.26-0.26","auditory","A03F69","null","","","","","","","","",""
"null","digits/four.wav","","audio-keyboard-response","44","194576","0.0-0.0-1.5-0.5-1.27-0.27","auditory","A03F69","null","","","","","","","","",""
"null","digits/one.wav","","audio-keyboard-response","45","195698","0.0-0.0-1.5-0.5-1.28-0.28","auditory","A03F69","null","","","","","","","","",""
"null","digits/seven.wav","","audio-keyboard-response","46","196765","0.0-0.0-1.5-0.5-1.29-0.29","auditory","A03F69","null","","","","","","","","",""
"null","digits/two.wav","","audio-keyboard-response","47","197808","0.0-0.0-1.5-0.5-1.30-0.30","auditory","A03F69","null","","","","","","","","",""
"null","digits/three.wav","","audio-keyboard-response","48","198811","0.0-0.0-1.5-0.5-1.31-0.31","auditory","A03F69","null","","","","","","","","",""
"20300","<div class = numbox><p>Wie lauteten die Zahlen <b>in umgekehrter Reihenfolge</b>?<br> Antwort mit Enter-Taste best&auml;tigen.</p><button id = button_1 class = ""square num-button"" onclick = ""recordClick(this)""><div class = content><div class = numbers>1</div></div></button><button id = button_2 class = ""square num-button"" onclick = ""recordClick(this)""><div class = content><div class = numbers>2</div></div></button><button id = button_3 class = ""square num-button"" onclick = ""recordClick(this)""><div class = content><div class = numbers>3</div></div></button><button id = button_4 class = ""square num-button"" onclick = ""recordClick(this)""><div class = content><div class = numbers>4</div></div></button><button id = button_5 class = ""square num-button"" onclick = ""recordClick(this)""><div class = content><div class = numbers>5</div></div></button><button id = button_6 class = ""square num-button"" onclick = ""recordClick(this)""><div class = content><div class = numbers>6</div></div></button><button id = button_7 class = ""square num-button"" onclick = ""recordClick(this)""><div class = content><div class = numbers>7</div></div></button><button id = button_8 class = ""square num-button"" onclick = ""recordClick(this)""><div class = content><div class = numbers>8</div></div></button><button id = button_9 class = ""square num-button"" onclick = ""recordClick(this)""><div class = content><div class = numbers>9</div></div></button><button class = clear_button id = ""ClearButton"" onclick = ""clearResponse()"">L&ouml;schen</button><p><u><b>Ihre Antwort:</b></u></p><div id=echoed_txt style=""font-size: 30px; color:blue;""><b></b></div></div>","","html-keyboard-response","49","219364","0.0-0.0-1.5-0.5-2.5","auditory","A03F69","13","BDS-RESPONSE","7","3,2,7,1,4,9,5","3,2,7,1,4,9,5","1","3,4,5,6,7,7,8,8,7,8,9,9","6","4",""
"","","","call-function","50","219364","0.0-0.0-1.5-0.5-3.5","auditory","A03F69","","","","","","","","","",""
"1844","<p>Test 7 von 12</p>","0","html-button-response","51","221209","0.0-0.0-1.6-0.6-0.6","auditory","A03F69","","","","","","","","","",""
"null","digits/five.wav","","audio-keyboard-response","52","222491","0.0-0.0-1.6-0.6-1.32-0.32","auditory","A03F69","null","","","","","","","","",""
"null","digits/six.wav","","audio-keyboard-response","53","223537","0.0-0.0-1.6-0.6-1.33-0.33","auditory","A03F69","null","","","","","","","","",""
"null","digits/nine.wav","","audio-keyboard-response","54","224465","0.0-0.0-1.6-0.6-1.34-0.34","auditory","A03F69","null","","","","","","","","",""
"null","digits/four.wav","","audio-keyboard-response","55","225478","0.0-0.0-1.6-0.6-1.35-0.35","auditory","A03F69","null","","","","","","","","",""
"null","digits/one.wav","","audio-keyboard-response","56","226600","0.0-0.0-1.6-0.6-1.36-0.36","auditory","A03F69","null","","","","","","","","",""
"null","digits/eight.wav","","audio-keyboard-response","57","227473","0.0-0.0-1.6-0.6-1.37-0.37","auditory","A03F69","null","","","","","","","","",""
"null","digits/two.wav","","audio-keyboard-response","58","228520","0.0-0.0-1.6-0.6-1.38-0.38","auditory","A03F69","null","","","","","","","","",""
"null","digits/seven.wav","","audio-keyboard-response","59","229585","0.0-0.0-1.6-0.6-1.39-0.39","auditory","A03F69","null","","","","","","","","",""
"65293","<div class = numbox><p>Wie lauteten die Zahlen <b>in umgekehrter Reihenfolge</b>?<br> Antwort mit Enter-Taste best&auml;tigen.</p><button id = button_1 class = ""square num-button"" onclick = ""recordClick(this)""><div class = content><div class = numbers>1</div></div></button><button id = button_2 class = ""square num-button"" onclick = ""recordClick(this)""><div class = content><div class = numbers>2</div></div></button><button id = button_3 class = ""square num-button"" onclick = ""recordClick(this)""><div class = content><div class = numbers>3</div></div></button><button id = button_4 class = ""square num-button"" onclick = ""recordClick(this)""><div class = content><div class = numbers>4</div></div></button><button id = button_5 class = ""square num-button"" onclick = ""recordClick(this)""><div class = content><div class = numbers>5</div></div></button><button id = button_6 class = ""square num-button"" onclick = ""recordClick(this)""><div class = content><div class = numbers>6</div></div></button><button id = button_7 class = ""square num-button"" onclick = ""recordClick(this)""><div class = content><div class = numbers>7</div></div></button><button id = button_8 class = ""square num-button"" onclick = ""recordClick(this)""><div class = content><div class = numbers>8</div></div></button><button id = button_9 class = ""square num-button"" onclick = ""recordClick(this)""><div class = content><div class = numbers>9</div></div></button><button class = clear_button id = ""ClearButton"" onclick = ""clearResponse()"">L&ouml;schen</button><p><u><b>Ihre Antwort:</b></u></p><div id=echoed_txt style=""font-size: 30px; color:blue;""><b></b></div></div>","","html-keyboard-response","60","295130","0.0-0.0-1.6-0.6-2.6","auditory","A03F69","13","BDS-RESPONSE","8","7,2,8,1,4,6,9,5","7,2,8,1,4,9,6,5","0","3,4,5,6,7,7,8,8,7,8,9,9","7","5",""
"","","","call-function","61","295130","0.0-0.0-1.6-0.6-3.6","auditory","A03F69","","","","","","","","","",""
"1600","<p>Test 8 von 12</p>","0","html-button-response","62","296730","0.0-0.0-1.7-0.7-0.7","auditory","A03F69","","","","","","","","","",""
"null","digits/eight.wav","","audio-keyboard-response","63","297853","0.0-0.0-1.7-0.7-1.40-0.40","auditory","A03F69","null","","","","","","","","",""
"null","digits/seven.wav","","audio-keyboard-response","64","298922","0.0-0.0-1.7-0.7-1.41-0.41","auditory","A03F69","null","","","","","","","","",""
"null","digits/six.wav","","audio-keyboard-response","65","299966","0.0-0.0-1.7-0.7-1.42-0.42","auditory","A03F69","null","","","","","","","","",""
"null","digits/nine.wav","","audio-keyboard-response","66","300894","0.0-0.0-1.7-0.7-1.43-0.43","auditory","A03F69","null","","","","","","","","",""
"null","digits/three.wav","","audio-keyboard-response","67","301896","0.0-0.0-1.7-0.7-1.44-0.44","auditory","A03F69","null","","","","","","","","",""
"null","digits/five.wav","","audio-keyboard-response","68","302931","0.0-0.0-1.7-0.7-1.45-0.45","auditory","A03F69","null","","","","","","","","",""
"null","digits/one.wav","","audio-keyboard-response","69","304053","0.0-0.0-1.7-0.7-1.46-0.46","auditory","A03F69","null","","","","","","","","",""
"null","digits/four.wav","","audio-keyboard-response","70","305064","0.0-0.0-1.7-0.7-1.47-0.47","auditory","A03F69","null","","","","","","","","",""
"22551","<div class = numbox><p>Wie lauteten die Zahlen <b>in umgekehrter Reihenfolge</b>?<br> Antwort mit Enter-Taste best&auml;tigen.</p><button id = button_1 class = ""square num-button"" onclick = ""recordClick(this)""><div class = content><div class = numbers>1</div></div></button><button id = button_2 class = ""square num-button"" onclick = ""recordClick(this)""><div class = content><div class = numbers>2</div></div></button><button id = button_3 class = ""square num-button"" onclick = ""recordClick(this)""><div class = content><div class = numbers>3</div></div></button><button id = button_4 class = ""square num-button"" onclick = ""recordClick(this)""><div class = content><div class = numbers>4</div></div></button><button id = button_5 class = ""square num-button"" onclick = ""recordClick(this)""><div class = content><div class = numbers>5</div></div></button><button id = button_6 class = ""square num-button"" onclick = ""recordClick(this)""><div class = content><div class = numbers>6</div></div></button><button id = button_7 class = ""square num-button"" onclick = ""recordClick(this)""><div class = content><div class = numbers>7</div></div></button><button id = button_8 class = ""square num-button"" onclick = ""recordClick(this)""><div class = content><div class = numbers>8</div></div></button><button id = button_9 class = ""square num-button"" onclick = ""recordClick(this)""><div class = content><div class = numbers>9</div></div></button><button class = clear_button id = ""ClearButton"" onclick = ""clearResponse()"">L&ouml;schen</button><p><u><b>Ihre Antwort:</b></u></p><div id=echoed_txt style=""font-size: 30px; color:blue;""><b></b></div></div>","","html-keyboard-response","71","327869","0.0-0.0-1.7-0.7-2.7","auditory","A03F69","13","BDS-RESPONSE","8","4,1,2,5,9,6,8","4,1,5,3,9,6,7,8","0","3,4,5,6,7,7,8,8,7,8,9,9","7","5",""
"","","","call-function","72","327870","0.0-0.0-1.7-0.7-3.7","auditory","A03F69","","","","","","","","","",""
"1172","<p>Test 9 von 12</p>","0","html-button-response","73","329042","0.0-0.0-1.8-0.8-0.8","auditory","A03F69","","","","","","","","","",""
"null","digits/six.wav","","audio-keyboard-response","74","330335","0.0-0.0-1.8-0.8-1.48-0.48","auditory","A03F69","null","","","","","","","","",""
"null","digits/four.wav","","audio-keyboard-response","75","331348","0.0-0.0-1.8-0.8-1.49-0.49","auditory","A03F69","null","","","","","","","","",""
"null","digits/nine.wav","","audio-keyboard-response","76","332276","0.0-0.0-1.8-0.8-1.50-0.50","auditory","A03F69","null","","","","","","","","",""
"null","digits/one.wav","","audio-keyboard-response","77","333398","0.0-0.0-1.8-0.8-1.51-0.51","auditory","A03F69","null","","","","","","","","",""
"null","digits/three.wav","","audio-keyboard-response","78","334399","0.0-0.0-1.8-0.8-1.52-0.52","auditory","A03F69","null","","","","","","","","",""
"null","digits/seven.wav","","audio-keyboard-response","79","335467","0.0-0.0-1.8-0.8-1.53-0.53","auditory","A03F69","null","","","","","","","","",""
"null","digits/eight.wav","","audio-keyboard-response","80","336340","0.0-0.0-1.8-0.8-1.54-0.54","auditory","A03F69","null","","","","","","","","",""
"23791","<div class = numbox><p>Wie lauteten die Zahlen <b>in umgekehrter Reihenfolge</b>?<br> Antwort mit Enter-Taste best&auml;tigen.</p><button id = button_1 class = ""square num-button"" onclick = ""recordClick(this)""><div class = content><div class = numbers>1</div></div></button><button id = button_2 class = ""square num-button"" onclick = ""recordClick(this)""><div class = content><div class = numbers>2</div></div></button><button id = button_3 class = ""square num-button"" onclick = ""recordClick(this)""><div class = content><div class = numbers>3</div></div></button><button id = button_4 class = ""square num-button"" onclick = ""recordClick(this)""><div class = content><div class = numbers>4</div></div></button><button id = button_5 class = ""square num-button"" onclick = ""recordClick(this)""><div class = content><div class = numbers>5</div></div></button><button id = button_6 class = ""square num-button"" onclick = ""recordClick(this)""><div class = content><div class = numbers>6</div></div></button><button id = button_7 class = ""square num-button"" onclick = ""recordClick(this)""><div class = content><div class = numbers>7</div></div></button><button id = button_8 class = ""square num-button"" onclick = ""recordClick(this)""><div class = content><div class = numbers>8</div></div></button><button id = button_9 class = ""square num-button"" onclick = ""recordClick(this)""><div class = content><div class = numbers>9</div></div></button><button class = clear_button id = ""ClearButton"" onclick = ""clearResponse()"">L&ouml;schen</button><p><u><b>Ihre Antwort:</b></u></p><div id=echoed_txt style=""font-size: 30px; color:blue;""><b></b></div></div>","","html-keyboard-response","81","360383","0.0-0.0-1.8-0.8-2.8","auditory","A03F69","13","BDS-RESPONSE","7","8,7,3,1,9,4,6","8,7,3,1,9,4,6","1","3,4,5,6,7,7,8,8,7,8,9,9","7","5",""
"","","","call-function","82","360383","0.0-0.0-1.8-0.8-3.8","auditory","A03F69","","","","","","","","","",""
"1126","<p>Test 10 von 12</p>","0","html-button-response","83","361511","0.0-0.0-1.9-0.9-0.9","auditory","A03F69","","","","","","","","","",""
"null","digits/one.wav","","audio-keyboard-response","84","362881","0.0-0.0-1.9-0.9-1.55-0.55","auditory","A03F69","null","","","","","","","","",""
"null","digits/four.wav","","audio-keyboard-response","85","363893","0.0-0.0-1.9-0.9-1.56-0.56","auditory","A03F69","null","","","","","","","","",""
"null","digits/eight.wav","","audio-keyboard-response","86","364767","0.0-0.0-1.9-0.9-1.57-0.57","auditory","A03F69","null","","","","","","","","",""
"null","digits/three.wav","","audio-keyboard-response","87","365770","0.0-0.0-1.9-0.9-1.58-0.58","auditory","A03F69","null","","","","","","","","",""
"null","digits/six.wav","","audio-keyboard-response","88","366815","0.0-0.0-1.9-0.9-1.59-0.59","auditory","A03F69","null","","","","","","","","",""
"null","digits/two.wav","","audio-keyboard-response","89","367861","0.0-0.0-1.9-0.9-1.60-0.60","auditory","A03F69","null","","","","","","","","",""
"null","digits/seven.wav","","audio-keyboard-response","90","368930","0.0-0.0-1.9-0.9-1.61-0.61","auditory","A03F69","null","","","","","","","","",""
"null","digits/nine.wav","","audio-keyboard-response","91","369855","0.0-0.0-1.9-0.9-1.62-0.62","auditory","A03F69","null","","","","","","","","",""
"37754","<div class = numbox><p>Wie lauteten die Zahlen <b>in umgekehrter Reihenfolge</b>?<br> Antwort mit Enter-Taste best&auml;tigen.</p><button id = button_1 class = ""square num-button"" onclick = ""recordClick(this)""><div class = content><div class = numbers>1</div></div></button><button id = button_2 class = ""square num-button"" onclick = ""recordClick(this)""><div class = content><div class = numbers>2</div></div></button><button id = button_3 class = ""square num-button"" onclick = ""recordClick(this)""><div class = content><div class = numbers>3</div></div></button><button id = button_4 class = ""square num-button"" onclick = ""recordClick(this)""><div class = content><div class = numbers>4</div></div></button><button id = button_5 class = ""square num-button"" onclick = ""recordClick(this)""><div class = content><div class = numbers>5</div></div></button><button id = button_6 class = ""square num-button"" onclick = ""recordClick(this)""><div class = content><div class = numbers>6</div></div></button><button id = button_7 class = ""square num-button"" onclick = ""recordClick(this)""><div class = content><div class = numbers>7</div></div></button><button id = button_8 class = ""square num-button"" onclick = ""recordClick(this)""><div class = content><div class = numbers>8</div></div></button><button id = button_9 class = ""square num-button"" onclick = ""recordClick(this)""><div class = content><div class = numbers>9</div></div></button><button class = clear_button id = ""ClearButton"" onclick = ""clearResponse()"">L&ouml;schen</button><p><u><b>Ihre Antwort:</b></u></p><div id=echoed_txt style=""font-size: 30px; color:blue;""><b></b></div></div>","","html-keyboard-response","92","407862","0.0-0.0-1.9-0.9-2.9","auditory","A03F69","13","BDS-RESPONSE","8","9,7,2,6,3,8,4,1","9,7,2,6,3,8,4,1","1","3,4,5,6,7,7,8,8,7,8,9,9","7","6",""
"","","","call-function","93","407862","0.0-0.0-1.9-0.9-3.9","auditory","A03F69","","","","","","","","","",""
"1703","<p>Test 11 von 12</p>","0","html-button-response","94","409565","0.0-0.0-1.10-0.10-0.10","auditory","A03F69","","","","","","","","","",""
"null","digits/six.wav","","audio-keyboard-response","95","410870","0.0-0.0-1.10-0.10-1.63-0.63","auditory","A03F69","null","","","","","","","","",""
"null","digits/seven.wav","","audio-keyboard-response","96","411939","0.0-0.0-1.10-0.10-1.64-0.64","auditory","A03F69","null","","","","","","","","",""
"null","digits/eight.wav","","audio-keyboard-response","97","412811","0.0-0.0-1.10-0.10-1.65-0.65","auditory","A03F69","null","","","","","","","","",""
"null","digits/two.wav","","audio-keyboard-response","98","413857","0.0-0.0-1.10-0.10-1.66-0.66","auditory","A03F69","null","","","","","","","","",""
"null","digits/nine.wav","","audio-keyboard-response","99","414785","0.0-0.0-1.10-0.10-1.67-0.67","auditory","A03F69","null","","","","","","","","",""
"null","digits/four.wav","","audio-keyboard-response","100","415798","0.0-0.0-1.10-0.10-1.68-0.68","auditory","A03F69","null","","","","","","","","",""
"null","digits/one.wav","","audio-keyboard-response","101","416920","0.0-0.0-1.10-0.10-1.69-0.69","auditory","A03F69","null","","","","","","","","",""
"null","digits/five.wav","","audio-keyboard-response","102","417953","0.0-0.0-1.10-0.10-1.70-0.70","auditory","A03F69","null","","","","","","","","",""
"null","digits/three.wav","","audio-keyboard-response","103","418956","0.0-0.0-1.10-0.10-1.71-0.71","auditory","A03F69","null","","","","","","","","",""
"38676","<div class = numbox><p>Wie lauteten die Zahlen <b>in umgekehrter Reihenfolge</b>?<br> Antwort mit Enter-Taste best&auml;tigen.</p><button id = button_1 class = ""square num-button"" onclick = ""recordClick(this)""><div class = content><div class = numbers>1</div></div></button><button id = button_2 class = ""square num-button"" onclick = ""recordClick(this)""><div class = content><div class = numbers>2</div></div></button><button id = button_3 class = ""square num-button"" onclick = ""recordClick(this)""><div class = content><div class = numbers>3</div></div></button><button id = button_4 class = ""square num-button"" onclick = ""recordClick(this)""><div class = content><div class = numbers>4</div></div></button><button id = button_5 class = ""square num-button"" onclick = ""recordClick(this)""><div class = content><div class = numbers>5</div></div></button><button id = button_6 class = ""square num-button"" onclick = ""recordClick(this)""><div class = content><div class = numbers>6</div></div></button><button id = button_7 class = ""square num-button"" onclick = ""recordClick(this)""><div class = content><div class = numbers>7</div></div></button><button id = button_8 class = ""square num-button"" onclick = ""recordClick(this)""><div class = content><div class = numbers>8</div></div></button><button id = button_9 class = ""square num-button"" onclick = ""recordClick(this)""><div class = content><div class = numbers>9</div></div></button><button class = clear_button id = ""ClearButton"" onclick = ""clearResponse()"">L&ouml;schen</button><p><u><b>Ihre Antwort:</b></u></p><div id=echoed_txt style=""font-size: 30px; color:blue;""><b></b></div></div>","","html-keyboard-response","104","457884","0.0-0.0-1.10-0.10-2.10","auditory","A03F69","13","BDS-RESPONSE","9","3,5,1,9,4,8,7,6","3,5,1,4,9,2,8,7,6","0","3,4,5,6,7,7,8,8,7,8,9,9","8","7",""
"","","","call-function","105","457885","0.0-0.0-1.10-0.10-3.10","auditory","A03F69","","","","","","","","","",""
"1111","<p>Test 12 von 12</p>","0","html-button-response","106","458996","0.0-0.0-1.11-0.11-0.11","auditory","A03F69","","","","","","","","","",""
"null","digits/two.wav","","audio-keyboard-response","107","460301","0.0-0.0-1.11-0.11-1.72-0.72","auditory","A03F69","null","","","","","","","","",""
"null","digits/seven.wav","","audio-keyboard-response","108","461370","0.0-0.0-1.11-0.11-1.73-0.73","auditory","A03F69","null","","","","","","","","",""
"null","digits/six.wav","","audio-keyboard-response","109","462415","0.0-0.0-1.11-0.11-1.74-0.74","auditory","A03F69","null","","","","","","","","",""
"null","digits/five.wav","","audio-keyboard-response","110","463448","0.0-0.0-1.11-0.11-1.75-0.75","auditory","A03F69","null","","","","","","","","",""
"null","digits/eight.wav","","audio-keyboard-response","111","464322","0.0-0.0-1.11-0.11-1.76-0.76","auditory","A03F69","null","","","","","","","","",""
"null","digits/three.wav","","audio-keyboard-response","112","465325","0.0-0.0-1.11-0.11-1.77-0.77","auditory","A03F69","null","","","","","","","","",""
"null","digits/nine.wav","","audio-keyboard-response","113","466253","0.0-0.0-1.11-0.11-1.78-0.78","auditory","A03F69","null","","","","","","","","",""
"null","digits/one.wav","","audio-keyboard-response","114","467375","0.0-0.0-1.11-0.11-1.79-0.79","auditory","A03F69","null","","","","","","","","",""
"null","digits/four.wav","","audio-keyboard-response","115","468386","0.0-0.0-1.11-0.11-1.80-0.80","auditory","A03F69","null","","","","","","","","",""
"11264","<div class = numbox><p>Wie lauteten die Zahlen <b>in umgekehrter Reihenfolge</b>?<br> Antwort mit Enter-Taste best&auml;tigen.</p><button id = button_1 class = ""square num-button"" onclick = ""recordClick(this)""><div class = content><div class = numbers>1</div></div></button><button id = button_2 class = ""square num-button"" onclick = ""recordClick(this)""><div class = content><div class = numbers>2</div></div></button><button id = button_3 class = ""square num-button"" onclick = ""recordClick(this)""><div class = content><div class = numbers>3</div></div></button><button id = button_4 class = ""square num-button"" onclick = ""recordClick(this)""><div class = content><div class = numbers>4</div></div></button><button id = button_5 class = ""square num-button"" onclick = ""recordClick(this)""><div class = content><div class = numbers>5</div></div></button><button id = button_6 class = ""square num-button"" onclick = ""recordClick(this)""><div class = content><div class = numbers>6</div></div></button><button id = button_7 class = ""square num-button"" onclick = ""recordClick(this)""><div class = content><div class = numbers>7</div></div></button><button id = button_8 class = ""square num-button"" onclick = ""recordClick(this)""><div class = content><div class = numbers>8</div></div></button><button id = button_9 class = ""square num-button"" onclick = ""recordClick(this)""><div class = content><div class = numbers>9</div></div></button><button class = clear_button id = ""ClearButton"" onclick = ""clearResponse()"">L&ouml;schen</button><p><u><b>Ihre Antwort:</b></u></p><div id=echoed_txt style=""font-size: 30px; color:blue;""><b></b></div></div>","","html-keyboard-response","116","479903","0.0-0.0-1.11-0.11-2.11","auditory","A03F69","13","BDS-RESPONSE","9","4,1,9,3,7,8,5","4,1,9,3,8,5,6,7,2","0","3,4,5,6,7,7,8,8,7,8,9,9","8","7",""
"","","","call-function","117","479903","0.0-0.0-1.11-0.11-3.11","auditory","A03F69","","","","","","","","","",""
"15026","<p>Die Aufgabe ist erledigt! Vielen Dank!</p><p>Die Gesamtzahl Ihrer korrekten Antworten ist <b>7</b>.</p>","0","html-button-response","118","494937","0.0-1.0","auditory","A03F69","","","","","","","","","",""
