"rt","stimulus","button_pressed","trial_type","trial_index","time_elapsed","internal_node_id","BDS_modality","subject","key_press","designation","span","answer","correct","was_correct","spanHistory","max_span","total_correct","value"
"932753","<p>Willkommen bei der <b>Ziffernspannen-Aufgabe.</b></p><p>Bei jedem Versuch h&ouml;ren Sie eine Ziffernfolge und sollen diese in umgekehrter Reihenfolge wiedergeben.</p><p>Zum Beispiel, falls sie die Zahlen <b style=""color:blue;"">Eins</b>, <b style=""color:blue;"">Zwei</b>, <b style=""color:blue;"">Drei</b>, geh&ouml;rt haben, dann antworten Sie mit <b style=""color:blue;"">3</b>, <b style=""color:blue;"">2</b>, <b style=""color:blue;"">1</b></p><p>Um eine hohe Qualit&auml;t der Daten zu gew&auml;hrleisten, ist es sehr wichtig, dass Sie keine Ged&auml;chtnisst&uuml;tze (z.B. Stift und Papier) verwenden.<br>Bitte bearbeiten Sie die Aufgabe ausschlie&#223;lich im Kopf.</p><p>Es werden insgesamt 12 Durchl&auml;ufe gemacht. Die Teilname dauert etwa 10 Minuten. Am Ende sehen sie Ihre erreichte Punktzahl.</p>","0","html-button-response","0","932756","0.0-0.0-0.0","auditory","A02F6F","","","","","","","","","",""
"1628","<p>Test 1 von 12</p>","0","html-button-response","1","934385","0.0-0.0-1.0-0.0-0.0","auditory","A02F6F","","","","","","","","","",""
"null","digits/one.wav","","audio-keyboard-response","2","935881","0.0-0.0-1.0-0.0-1.0-0.0","auditory","A02F6F","null","","","","","","","","",""
"null","digits/five.wav","","audio-keyboard-response","3","936921","0.0-0.0-1.0-0.0-1.1-0.1","auditory","A02F6F","null","","","","","","","","",""
"null","digits/nine.wav","","audio-keyboard-response","4","937852","0.0-0.0-1.0-0.0-1.2-0.2","auditory","A02F6F","null","","","","","","","","",""
"6356","<div class = numbox><p>Wie lauteten die Zahlen <b>in umgekehrter Reihenfolge</b>?<br> Antwort mit Enter-Taste best&auml;tigen.</p><button id = button_1 class = ""square num-button"" onclick = ""recordClick(this)""><div class = content><div class = numbers>1</div></div></button><button id = button_2 class = ""square num-button"" onclick = ""recordClick(this)""><div class = content><div class = numbers>2</div></div></button><button id = button_3 class = ""square num-button"" onclick = ""recordClick(this)""><div class = content><div class = numbers>3</div></div></button><button id = button_4 class = ""square num-button"" onclick = ""recordClick(this)""><div class = content><div class = numbers>4</div></div></button><button id = button_5 class = ""square num-button"" onclick = ""recordClick(this)""><div class = content><div class = numbers>5</div></div></button><button id = button_6 class = ""square num-button"" onclick = ""recordClick(this)""><div class = content><div class = numbers>6</div></div></button><button id = button_7 class = ""square num-button"" onclick = ""recordClick(this)""><div class = content><div class = numbers>7</div></div></button><button id = button_8 class = ""square num-button"" onclick = ""recordClick(this)""><div class = content><div class = numbers>8</div></div></button><button id = button_9 class = ""square num-button"" onclick = ""recordClick(this)""><div class = content><div class = numbers>9</div></div></button><button class = clear_button id = ""ClearButton"" onclick = ""clearResponse()"">L&ouml;schen</button><p><u><b>Ihre Antwort:</b></u></p><div id=echoed_txt style=""font-size: 30px; color:blue;""><b></b></div></div>","","html-keyboard-response","5","944460","0.0-0.0-1.0-0.0-2.0","auditory","A02F6F","13","BDS-RESPONSE","3","9,5,1","9,5,1","1","3,4,5,6,7,7,8,9,10,10,9,9","0","0",""
"","","","call-function","6","944461","0.0-0.0-1.0-0.0-3.0","auditory","A02F6F","","","","","","","","","",""
"2923","<p>Test 2 von 12</p>","0","html-button-response","7","947384","0.0-0.0-1.1-0.1-0.1","auditory","A02F6F","","","","","","","","","",""
"null","digits/seven.wav","","audio-keyboard-response","8","948706","0.0-0.0-1.1-0.1-1.3-0.3","auditory","A02F6F","null","","","","","","","","",""
"null","digits/two.wav","","audio-keyboard-response","9","949753","0.0-0.0-1.1-0.1-1.4-0.4","auditory","A02F6F","null","","","","","","","","",""
"null","digits/one.wav","","audio-keyboard-response","10","950876","0.0-0.0-1.1-0.1-1.5-0.5","auditory","A02F6F","null","","","","","","","","",""
"null","digits/nine.wav","","audio-keyboard-response","11","951807","0.0-0.0-1.1-0.1-1.6-0.6","auditory","A02F6F","null","","","","","","","","",""
"14672","<div class = numbox><p>Wie lauteten die Zahlen <b>in umgekehrter Reihenfolge</b>?<br> Antwort mit Enter-Taste best&auml;tigen.</p><button id = button_1 class = ""square num-button"" onclick = ""recordClick(this)""><div class = content><div class = numbers>1</div></div></button><button id = button_2 class = ""square num-button"" onclick = ""recordClick(this)""><div class = content><div class = numbers>2</div></div></button><button id = button_3 class = ""square num-button"" onclick = ""recordClick(this)""><div class = content><div class = numbers>3</div></div></button><button id = button_4 class = ""square num-button"" onclick = ""recordClick(this)""><div class = content><div class = numbers>4</div></div></button><button id = button_5 class = ""square num-button"" onclick = ""recordClick(this)""><div class = content><div class = numbers>5</div></div></button><button id = button_6 class = ""square num-button"" onclick = ""recordClick(this)""><div class = content><div class = numbers>6</div></div></button><button id = button_7 class = ""square num-button"" onclick = ""recordClick(this)""><div class = content><div class = numbers>7</div></div></button><button id = button_8 class = ""square num-button"" onclick = ""recordClick(this)""><div class = content><div class = numbers>8</div></div></button><button id = button_9 class = ""square num-button"" onclick = ""recordClick(this)""><div class = content><div class = numbers>9</div></div></button><button class = clear_button id = ""ClearButton"" onclick = ""clearResponse()"">L&ouml;schen</button><p><u><b>Ihre Antwort:</b></u></p><div id=echoed_txt style=""font-size: 30px; color:blue;""><b></b></div></div>","","html-keyboard-response","12","966731","0.0-0.0-1.1-0.1-2.1","auditory","A02F6F","13","BDS-RESPONSE","4","9,1,2,7","9,1,2,7","1","3,4,5,6,7,7,8,9,10,10,9,9","3","1",""
"","","","call-function","13","966731","0.0-0.0-1.1-0.1-3.1","auditory","A02F6F","","","","","","","","","",""
"1544","<p>Test 3 von 12</p>","0","html-button-response","14","968275","0.0-0.0-1.2-0.2-0.2","auditory","A02F6F","","","","","","","","","",""
"null","digits/three.wav","","audio-keyboard-response","15","969527","0.0-0.0-1.2-0.2-1.7-0.7","auditory","A02F6F","null","","","","","","","","",""
"null","digits/four.wav","","audio-keyboard-response","16","970540","0.0-0.0-1.2-0.2-1.8-0.8","auditory","A02F6F","null","","","","","","","","",""
"null","digits/seven.wav","","audio-keyboard-response","17","971612","0.0-0.0-1.2-0.2-1.9-0.9","auditory","A02F6F","null","","","","","","","","",""
"null","digits/one.wav","","audio-keyboard-response","18","972735","0.0-0.0-1.2-0.2-1.10-0.10","auditory","A02F6F","null","","","","","","","","",""
"null","digits/five.wav","","audio-keyboard-response","19","973775","0.0-0.0-1.2-0.2-1.11-0.11","auditory","A02F6F","null","","","","","","","","",""
"8459","<div class = numbox><p>Wie lauteten die Zahlen <b>in umgekehrter Reihenfolge</b>?<br> Antwort mit Enter-Taste best&auml;tigen.</p><button id = button_1 class = ""square num-button"" onclick = ""recordClick(this)""><div class = content><div class = numbers>1</div></div></button><button id = button_2 class = ""square num-button"" onclick = ""recordClick(this)""><div class = content><div class = numbers>2</div></div></button><button id = button_3 class = ""square num-button"" onclick = ""recordClick(this)""><div class = content><div class = numbers>3</div></div></button><button id = button_4 class = ""square num-button"" onclick = ""recordClick(this)""><div class = content><div class = numbers>4</div></div></button><button id = button_5 class = ""square num-button"" onclick = ""recordClick(this)""><div class = content><div class = numbers>5</div></div></button><button id = button_6 class = ""square num-button"" onclick = ""recordClick(this)""><div class = content><div class = numbers>6</div></div></button><button id = button_7 class = ""square num-button"" onclick = ""recordClick(this)""><div class = content><div class = numbers>7</div></div></button><button id = button_8 class = ""square num-button"" onclick = ""recordClick(this)""><div class = content><div class = numbers>8</div></div></button><button id = button_9 class = ""square num-button"" onclick = ""recordClick(this)""><div class = content><div class = numbers>9</div></div></button><button class = clear_button id = ""ClearButton"" onclick = ""clearResponse()"">L&ouml;schen</button><p><u><b>Ihre Antwort:</b></u></p><div id=echoed_txt style=""font-size: 30px; color:blue;""><b></b></div></div>","","html-keyboard-response","20","982486","0.0-0.0-1.2-0.2-2.2","auditory","A02F6F","13","BDS-RESPONSE","5","5,1,7,4,3","5,1,7,4,3","1","3,4,5,6,7,7,8,9,10,10,9,9","4","2",""
"","","","call-function","21","982486","0.0-0.0-1.2-0.2-3.2","auditory","A02F6F","","","","","","","","","",""
"1470","<p>Test 4 von 12</p>","0","html-button-response","22","983956","0.0-0.0-1.3-0.3-0.3","auditory","A02F6F","","","","","","","","","",""
"null","digits/two.wav","","audio-keyboard-response","23","985255","0.0-0.0-1.3-0.3-1.12-0.12","auditory","A02F6F","null","","","","","","","","",""
"null","digits/five.wav","","audio-keyboard-response","24","986295","0.0-0.0-1.3-0.3-1.13-0.13","auditory","A02F6F","null","","","","","","","","",""
"null","digits/six.wav","","audio-keyboard-response","25","987343","0.0-0.0-1.3-0.3-1.14-0.14","auditory","A02F6F","null","","","","","","","","",""
"null","digits/one.wav","","audio-keyboard-response","26","988466","0.0-0.0-1.3-0.3-1.15-0.15","auditory","A02F6F","null","","","","","","","","",""
"null","digits/seven.wav","","audio-keyboard-response","27","989538","0.0-0.0-1.3-0.3-1.16-0.16","auditory","A02F6F","null","","","","","","","","",""
"null","digits/nine.wav","","audio-keyboard-response","28","990468","0.0-0.0-1.3-0.3-1.17-0.17","auditory","A02F6F","null","","","","","","","","",""
"34501","<div class = numbox><p>Wie lauteten die Zahlen <b>in umgekehrter Reihenfolge</b>?<br> Antwort mit Enter-Taste best&auml;tigen.</p><button id = button_1 class = ""square num-button"" onclick = ""recordClick(this)""><div class = content><div class = numbers>1</div></div></button><button id = button_2 class = ""square num-button"" onclick = ""recordClick(this)""><div class = content><div class = numbers>2</div></div></button><button id = button_3 class = ""square num-button"" onclick = ""recordClick(this)""><div class = content><div class = numbers>3</div></div></button><button id = button_4 class = ""square num-button"" onclick = ""recordClick(this)""><div class = content><div class = numbers>4</div></div></button><button id = button_5 class = ""square num-button"" onclick = ""recordClick(this)""><div class = content><div class = numbers>5</div></div></button><button id = button_6 class = ""square num-button"" onclick = ""recordClick(this)""><div class = content><div class = numbers>6</div></div></button><button id = button_7 class = ""square num-button"" onclick = ""recordClick(this)""><div class = content><div class = numbers>7</div></div></button><button id = button_8 class = ""square num-button"" onclick = ""recordClick(this)""><div class = content><div class = numbers>8</div></div></button><button id = button_9 class = ""square num-button"" onclick = ""recordClick(this)""><div class = content><div class = numbers>9</div></div></button><button class = clear_button id = ""ClearButton"" onclick = ""clearResponse()"">L&ouml;schen</button><p><u><b>Ihre Antwort:</b></u></p><div id=echoed_txt style=""font-size: 30px; color:blue;""><b></b></div></div>","","html-keyboard-response","29","1025221","0.0-0.0-1.3-0.3-2.3","auditory","A02F6F","13","BDS-RESPONSE","6","9,7,1,6,5,2","9,7,1,6,5,2","1","3,4,5,6,7,7,8,9,10,10,9,9","5","3",""
"","","","call-function","30","1025221","0.0-0.0-1.3-0.3-3.3","auditory","A02F6F","","","","","","","","","",""
"1415","<p>Test 5 von 12</p>","0","html-button-response","31","1026637","0.0-0.0-1.4-0.4-0.4","auditory","A02F6F","","","","","","","","","",""
"null","digits/two.wav","","audio-keyboard-response","32","1027935","0.0-0.0-1.4-0.4-1.18-0.18","auditory","A02F6F","null","","","","","","","","",""
"null","digits/six.wav","","audio-keyboard-response","33","1028984","0.0-0.0-1.4-0.4-1.19-0.19","auditory","A02F6F","null","","","","","","","","",""
"null","digits/eight.wav","","audio-keyboard-response","34","1029863","0.0-0.0-1.4-0.4-1.20-0.20","auditory","A02F6F","null","","","","","","","","",""
"null","digits/seven.wav","","audio-keyboard-response","35","1030936","0.0-0.0-1.4-0.4-1.21-0.21","auditory","A02F6F","null","","","","","","","","",""
"null","digits/five.wav","","audio-keyboard-response","36","1031975","0.0-0.0-1.4-0.4-1.22-0.22","auditory","A02F6F","null","","","","","","","","",""
"null","digits/four.wav","","audio-keyboard-response","37","1032989","0.0-0.0-1.4-0.4-1.23-0.23","auditory","A02F6F","null","","","","","","","","",""
"null","digits/nine.wav","","audio-keyboard-response","38","1033919","0.0-0.0-1.4-0.4-1.24-0.24","auditory","A02F6F","null","","","","","","","","",""
"70925","<div class = numbox><p>Wie lauteten die Zahlen <b>in umgekehrter Reihenfolge</b>?<br> Antwort mit Enter-Taste best&auml;tigen.</p><button id = button_1 class = ""square num-button"" onclick = ""recordClick(this)""><div class = content><div class = numbers>1</div></div></button><button id = button_2 class = ""square num-button"" onclick = ""recordClick(this)""><div class = content><div class = numbers>2</div></div></button><button id = button_3 class = ""square num-button"" onclick = ""recordClick(this)""><div class = content><div class = numbers>3</div></div></button><button id = button_4 class = ""square num-button"" onclick = ""recordClick(this)""><div class = content><div class = numbers>4</div></div></button><button id = button_5 class = ""square num-button"" onclick = ""recordClick(this)""><div class = content><div class = numbers>5</div></div></button><button id = button_6 class = ""square num-button"" onclick = ""recordClick(this)""><div class = content><div class = numbers>6</div></div></button><button id = button_7 class = ""square num-button"" onclick = ""recordClick(this)""><div class = content><div class = numbers>7</div></div></button><button id = button_8 class = ""square num-button"" onclick = ""recordClick(this)""><div class = content><div class = numbers>8</div></div></button><button id = button_9 class = ""square num-button"" onclick = ""recordClick(this)""><div class = content><div class = numbers>9</div></div></button><button class = clear_button id = ""ClearButton"" onclick = ""clearResponse()"">L&ouml;schen</button><p><u><b>Ihre Antwort:</b></u></p><div id=echoed_txt style=""font-size: 30px; color:blue;""><b></b></div></div>","","html-keyboard-response","39","1105096","0.0-0.0-1.4-0.4-2.4","auditory","A02F6F","13","BDS-RESPONSE","7","9,4,7,6,5,2","9,4,5,7,8,6,2","0","3,4,5,6,7,7,8,9,10,10,9,9","6","4",""
"","","","call-function","40","1105096","0.0-0.0-1.4-0.4-3.4","auditory","A02F6F","","","","","","","","","",""
"1312","<p>Test 6 von 12</p>","0","html-button-response","41","1106408","0.0-0.0-1.5-0.5-0.5","auditory","A02F6F","","","","","","","","","",""
"null","digits/seven.wav","","audio-keyboard-response","42","1107731","0.0-0.0-1.5-0.5-1.25-0.25","auditory","A02F6F","null","","","","","","","","",""
"null","digits/four.wav","","audio-keyboard-response","43","1108744","0.0-0.0-1.5-0.5-1.26-0.26","auditory","A02F6F","null","","","","","","","","",""
"null","digits/eight.wav","","audio-keyboard-response","44","1109624","0.0-0.0-1.5-0.5-1.27-0.27","auditory","A02F6F","null","","","","","","","","",""
"null","digits/five.wav","","audio-keyboard-response","45","1110664","0.0-0.0-1.5-0.5-1.28-0.28","auditory","A02F6F","null","","","","","","","","",""
"null","digits/one.wav","","audio-keyboard-response","46","1111787","0.0-0.0-1.5-0.5-1.29-0.29","auditory","A02F6F","null","","","","","","","","",""
"null","digits/three.wav","","audio-keyboard-response","47","1112789","0.0-0.0-1.5-0.5-1.30-0.30","auditory","A02F6F","null","","","","","","","","",""
"null","digits/six.wav","","audio-keyboard-response","48","1113837","0.0-0.0-1.5-0.5-1.31-0.31","auditory","A02F6F","null","","","","","","","","",""
"25550","<div class = numbox><p>Wie lauteten die Zahlen <b>in umgekehrter Reihenfolge</b>?<br> Antwort mit Enter-Taste best&auml;tigen.</p><button id = button_1 class = ""square num-button"" onclick = ""recordClick(this)""><div class = content><div class = numbers>1</div></div></button><button id = button_2 class = ""square num-button"" onclick = ""recordClick(this)""><div class = content><div class = numbers>2</div></div></button><button id = button_3 class = ""square num-button"" onclick = ""recordClick(this)""><div class = content><div class = numbers>3</div></div></button><button id = button_4 class = ""square num-button"" onclick = ""recordClick(this)""><div class = content><div class = numbers>4</div></div></button><button id = button_5 class = ""square num-button"" onclick = ""recordClick(this)""><div class = content><div class = numbers>5</div></div></button><button id = button_6 class = ""square num-button"" onclick = ""recordClick(this)""><div class = content><div class = numbers>6</div></div></button><button id = button_7 class = ""square num-button"" onclick = ""recordClick(this)""><div class = content><div class = numbers>7</div></div></button><button id = button_8 class = ""square num-button"" onclick = ""recordClick(this)""><div class = content><div class = numbers>8</div></div></button><button id = button_9 class = ""square num-button"" onclick = ""recordClick(this)""><div class = content><div class = numbers>9</div></div></button><button class = clear_button id = ""ClearButton"" onclick = ""clearResponse()"">L&ouml;schen</button><p><u><b>Ihre Antwort:</b></u></p><div id=echoed_txt style=""font-size: 30px; color:blue;""><b></b></div></div>","","html-keyboard-response","49","1139639","0.0-0.0-1.5-0.5-2.5","auditory","A02F6F","13","BDS-RESPONSE","7","6,3,1,5,8,4,7","6,3,1,5,8,4,7","1","3,4,5,6,7,7,8,9,10,10,9,9","6","4",""
"","","","call-function","50","1139639","0.0-0.0-1.5-0.5-3.5","auditory","A02F6F","","","","","","","","","",""
"1258","<p>Test 7 von 12</p>","0","html-button-response","51","1140897","0.0-0.0-1.6-0.6-0.6","auditory","A02F6F","","","","","","","","","",""
"null","digits/four.wav","","audio-keyboard-response","52","1142160","0.0-0.0-1.6-0.6-1.32-0.32","auditory","A02F6F","null","","","","","","","","",""
"null","digits/two.wav","","audio-keyboard-response","53","1143209","0.0-0.0-1.6-0.6-1.33-0.33","auditory","A02F6F","null","","","","","","","","",""
"null","digits/nine.wav","","audio-keyboard-response","54","1144140","0.0-0.0-1.6-0.6-1.34-0.34","auditory","A02F6F","null","","","","","","","","",""
"null","digits/six.wav","","audio-keyboard-response","55","1145188","0.0-0.0-1.6-0.6-1.35-0.35","auditory","A02F6F","null","","","","","","","","",""
"null","digits/eight.wav","","audio-keyboard-response","56","1146068","0.0-0.0-1.6-0.6-1.36-0.36","auditory","A02F6F","null","","","","","","","","",""
"null","digits/five.wav","","audio-keyboard-response","57","1147108","0.0-0.0-1.6-0.6-1.37-0.37","auditory","A02F6F","null","","","","","","","","",""
"null","digits/one.wav","","audio-keyboard-response","58","1148231","0.0-0.0-1.6-0.6-1.38-0.38","auditory","A02F6F","null","","","","","","","","",""
"null","digits/three.wav","","audio-keyboard-response","59","1149234","0.0-0.0-1.6-0.6-1.39-0.39","auditory","A02F6F","null","","","","","","","","",""
"59720","<div class = numbox><p>Wie lauteten die Zahlen <b>in umgekehrter Reihenfolge</b>?<br> Antwort mit Enter-Taste best&auml;tigen.</p><button id = button_1 class = ""square num-button"" onclick = ""recordClick(this)""><div class = content><div class = numbers>1</div></div></button><button id = button_2 class = ""square num-button"" onclick = ""recordClick(this)""><div class = content><div class = numbers>2</div></div></button><button id = button_3 class = ""square num-button"" onclick = ""recordClick(this)""><div class = content><div class = numbers>3</div></div></button><button id = button_4 class = ""square num-button"" onclick = ""recordClick(this)""><div class = content><div class = numbers>4</div></div></button><button id = button_5 class = ""square num-button"" onclick = ""recordClick(this)""><div class = content><div class = numbers>5</div></div></button><button id = button_6 class = ""square num-button"" onclick = ""recordClick(this)""><div class = content><div class = numbers>6</div></div></button><button id = button_7 class = ""square num-button"" onclick = ""recordClick(this)""><div class = content><div class = numbers>7</div></div></button><button id = button_8 class = ""square num-button"" onclick = ""recordClick(this)""><div class = content><div class = numbers>8</div></div></button><button id = button_9 class = ""square num-button"" onclick = ""recordClick(this)""><div class = content><div class = numbers>9</div></div></button><button class = clear_button id = ""ClearButton"" onclick = ""clearResponse()"">L&ouml;schen</button><p><u><b>Ihre Antwort:</b></u></p><div id=echoed_txt style=""font-size: 30px; color:blue;""><b></b></div></div>","","html-keyboard-response","60","1209206","0.0-0.0-1.6-0.6-2.6","auditory","A02F6F","13","BDS-RESPONSE","8","3,1,5,8,6,9,2,4","3,1,5,8,6,9,2,4","1","3,4,5,6,7,7,8,9,10,10,9,9","7","5",""
"","","","call-function","61","1209206","0.0-0.0-1.6-0.6-3.6","auditory","A02F6F","","","","","","","","","",""
"1195","<p>Test 8 von 12</p>","0","html-button-response","62","1210401","0.0-0.0-1.7-0.7-0.7","auditory","A02F6F","","","","","","","","","",""
"null","digits/five.wav","","audio-keyboard-response","63","1211691","0.0-0.0-1.7-0.7-1.40-0.40","auditory","A02F6F","null","","","","","","","","",""
"null","digits/six.wav","","audio-keyboard-response","64","1212739","0.0-0.0-1.7-0.7-1.41-0.41","auditory","A02F6F","null","","","","","","","","",""
"null","digits/one.wav","","audio-keyboard-response","65","1213861","0.0-0.0-1.7-0.7-1.42-0.42","auditory","A02F6F","null","","","","","","","","",""
"null","digits/three.wav","","audio-keyboard-response","66","1214864","0.0-0.0-1.7-0.7-1.43-0.43","auditory","A02F6F","null","","","","","","","","",""
"null","digits/eight.wav","","audio-keyboard-response","67","1215744","0.0-0.0-1.7-0.7-1.44-0.44","auditory","A02F6F","null","","","","","","","","",""
"null","digits/nine.wav","","audio-keyboard-response","68","1216675","0.0-0.0-1.7-0.7-1.45-0.45","auditory","A02F6F","null","","","","","","","","",""
"null","digits/seven.wav","","audio-keyboard-response","69","1217747","0.0-0.0-1.7-0.7-1.46-0.46","auditory","A02F6F","null","","","","","","","","",""
"null","digits/four.wav","","audio-keyboard-response","70","1218760","0.0-0.0-1.7-0.7-1.47-0.47","auditory","A02F6F","null","","","","","","","","",""
"null","digits/two.wav","","audio-keyboard-response","71","1219808","0.0-0.0-1.7-0.7-1.48-0.48","auditory","A02F6F","null","","","","","","","","",""
"26636","<div class = numbox><p>Wie lauteten die Zahlen <b>in umgekehrter Reihenfolge</b>?<br> Antwort mit Enter-Taste best&auml;tigen.</p><button id = button_1 class = ""square num-button"" onclick = ""recordClick(this)""><div class = content><div class = numbers>1</div></div></button><button id = button_2 class = ""square num-button"" onclick = ""recordClick(this)""><div class = content><div class = numbers>2</div></div></button><button id = button_3 class = ""square num-button"" onclick = ""recordClick(this)""><div class = content><div class = numbers>3</div></div></button><button id = button_4 class = ""square num-button"" onclick = ""recordClick(this)""><div class = content><div class = numbers>4</div></div></button><button id = button_5 class = ""square num-button"" onclick = ""recordClick(this)""><div class = content><div class = numbers>5</div></div></button><button id = button_6 class = ""square num-button"" onclick = ""recordClick(this)""><div class = content><div class = numbers>6</div></div></button><button id = button_7 class = ""square num-button"" onclick = ""recordClick(this)""><div class = content><div class = numbers>7</div></div></button><button id = button_8 class = ""square num-button"" onclick = ""recordClick(this)""><div class = content><div class = numbers>8</div></div></button><button id = button_9 class = ""square num-button"" onclick = ""recordClick(this)""><div class = content><div class = numbers>9</div></div></button><button class = clear_button id = ""ClearButton"" onclick = ""clearResponse()"">L&ouml;schen</button><p><u><b>Ihre Antwort:</b></u></p><div id=echoed_txt style=""font-size: 30px; color:blue;""><b></b></div></div>","","html-keyboard-response","72","1246695","0.0-0.0-1.7-0.7-2.7","auditory","A02F6F","13","BDS-RESPONSE","9","2,4,7,9,8,3,1,6,5","2,4,7,9,8,3,1,6,5","1","3,4,5,6,7,7,8,9,10,10,9,9","8","6",""
"","","","call-function","73","1246695","0.0-0.0-1.7-0.7-3.7","auditory","A02F6F","","","","","","","","","",""
"1213","<p>Test 9 von 12</p>","0","html-button-response","74","1247908","0.0-0.0-1.8-0.8-0.8","auditory","A02F6F","","","","","","","","","",""
"null","digits/five.wav","","audio-keyboard-response","75","1249198","0.0-0.0-1.8-0.8-1.49-0.49","auditory","A02F6F","null","","","","","","","","",""
"null","digits/two.wav","","audio-keyboard-response","76","1250246","0.0-0.0-1.8-0.8-1.50-0.50","auditory","A02F6F","null","","","","","","","","",""
"null","digits/six.wav","","audio-keyboard-response","77","1251294","0.0-0.0-1.8-0.8-1.51-0.51","auditory","A02F6F","null","","","","","","","","",""
"null","digits/three.wav","","audio-keyboard-response","78","1252297","0.0-0.0-1.8-0.8-1.52-0.52","auditory","A02F6F","null","","","","","","","","",""
"null","digits/seven.wav","","audio-keyboard-response","79","1253369","0.0-0.0-1.8-0.8-1.53-0.53","auditory","A02F6F","null","","","","","","","","",""
"null","digits/eight.wav","","audio-keyboard-response","80","1254249","0.0-0.0-1.8-0.8-1.54-0.54","auditory","A02F6F","null","","","","","","","","",""
"null","digits/four.wav","","audio-keyboard-response","81","1255262","0.0-0.0-1.8-0.8-1.55-0.55","auditory","A02F6F","null","","","","","","","","",""
"null","digits/nine.wav","","audio-keyboard-response","82","1256193","0.0-0.0-1.8-0.8-1.56-0.56","auditory","A02F6F","null","","","","","","","","",""
"null","digits/one.wav","","audio-keyboard-response","83","1257316","0.0-0.0-1.8-0.8-1.57-0.57","auditory","A02F6F","null","","","","","","","","",""
"null","digits/two.wav","","audio-keyboard-response","84","1258364","0.0-0.0-1.8-0.8-1.58-0.58","auditory","A02F6F","null","","","","","","","","",""
"69598","<div class = numbox><p>Wie lauteten die Zahlen <b>in umgekehrter Reihenfolge</b>?<br> Antwort mit Enter-Taste best&auml;tigen.</p><button id = button_1 class = ""square num-button"" onclick = ""recordClick(this)""><div class = content><div class = numbers>1</div></div></button><button id = button_2 class = ""square num-button"" onclick = ""recordClick(this)""><div class = content><div class = numbers>2</div></div></button><button id = button_3 class = ""square num-button"" onclick = ""recordClick(this)""><div class = content><div class = numbers>3</div></div></button><button id = button_4 class = ""square num-button"" onclick = ""recordClick(this)""><div class = content><div class = numbers>4</div></div></button><button id = button_5 class = ""square num-button"" onclick = ""recordClick(this)""><div class = content><div class = numbers>5</div></div></button><button id = button_6 class = ""square num-button"" onclick = ""recordClick(this)""><div class = content><div class = numbers>6</div></div></button><button id = button_7 class = ""square num-button"" onclick = ""recordClick(this)""><div class = content><div class = numbers>7</div></div></button><button id = button_8 class = ""square num-button"" onclick = ""recordClick(this)""><div class = content><div class = numbers>8</div></div></button><button id = button_9 class = ""square num-button"" onclick = ""recordClick(this)""><div class = content><div class = numbers>9</div></div></button><button class = clear_button id = ""ClearButton"" onclick = ""clearResponse()"">L&ouml;schen</button><p><u><b>Ihre Antwort:</b></u></p><div id=echoed_txt style=""font-size: 30px; color:blue;""><b></b></div></div>","","html-keyboard-response","85","1328215","0.0-0.0-1.8-0.8-2.8","auditory","A02F6F","13","BDS-RESPONSE","10","2,8,9,4,7,3,6,1,5","2,1,9,4,8,7,3,6,2,5","0","3,4,5,6,7,7,8,9,10,10,9,9","9","7",""
"","","","call-function","86","1328215","0.0-0.0-1.8-0.8-3.8","auditory","A02F6F","","","","","","","","","",""
"1162","<p>Test 10 von 12</p>","0","html-button-response","87","1329377","0.0-0.0-1.9-0.9-0.9","auditory","A02F6F","","","","","","","","","",""
"null","digits/three.wav","","audio-keyboard-response","88","1330629","0.0-0.0-1.9-0.9-1.59-0.59","auditory","A02F6F","null","","","","","","","","",""
"null","digits/eight.wav","","audio-keyboard-response","89","1331509","0.0-0.0-1.9-0.9-1.60-0.60","auditory","A02F6F","null","","","","","","","","",""
"null","digits/one.wav","","audio-keyboard-response","90","1332632","0.0-0.0-1.9-0.9-1.61-0.61","auditory","A02F6F","null","","","","","","","","",""
"null","digits/four.wav","","audio-keyboard-response","91","1333645","0.0-0.0-1.9-0.9-1.62-0.62","auditory","A02F6F","null","","","","","","","","",""
"null","digits/seven.wav","","audio-keyboard-response","92","1334717","0.0-0.0-1.9-0.9-1.63-0.63","auditory","A02F6F","null","","","","","","","","",""
"null","digits/two.wav","","audio-keyboard-response","93","1335765","0.0-0.0-1.9-0.9-1.64-0.64","auditory","A02F6F","null","","","","","","","","",""
"null","digits/six.wav","","audio-keyboard-response","94","1336813","0.0-0.0-1.9-0.9-1.65-0.65","auditory","A02F6F","null","","","","","","","","",""
"null","digits/nine.wav","","audio-keyboard-response","95","1337744","0.0-0.0-1.9-0.9-1.66-0.66","auditory","A02F6F","null","","","","","","","","",""
"null","digits/five.wav","","audio-keyboard-response","96","1338784","0.0-0.0-1.9-0.9-1.67-0.67","auditory","A02F6F","null","","","","","","","","",""
"null","digits/two.wav","","audio-keyboard-response","97","1339832","0.0-0.0-1.9-0.9-1.68-0.68","auditory","A02F6F","null","","","","","","","","",""
"53399","<div class = numbox><p>Wie lauteten die Zahlen <b>in umgekehrter Reihenfolge</b>?<br> Antwort mit Enter-Taste best&auml;tigen.</p><button id = button_1 class = ""square num-button"" onclick = ""recordClick(this)""><div class = content><div class = numbers>1</div></div></button><button id = button_2 class = ""square num-button"" onclick = ""recordClick(this)""><div class = content><div class = numbers>2</div></div></button><button id = button_3 class = ""square num-button"" onclick = ""recordClick(this)""><div class = content><div class = numbers>3</div></div></button><button id = button_4 class = ""square num-button"" onclick = ""recordClick(this)""><div class = content><div class = numbers>4</div></div></button><button id = button_5 class = ""square num-button"" onclick = ""recordClick(this)""><div class = content><div class = numbers>5</div></div></button><button id = button_6 class = ""square num-button"" onclick = ""recordClick(this)""><div class = content><div class = numbers>6</div></div></button><button id = button_7 class = ""square num-button"" onclick = ""recordClick(this)""><div class = content><div class = numbers>7</div></div></button><button id = button_8 class = ""square num-button"" onclick = ""recordClick(this)""><div class = content><div class = numbers>8</div></div></button><button id = button_9 class = ""square num-button"" onclick = ""recordClick(this)""><div class = content><div class = numbers>9</div></div></button><button class = clear_button id = ""ClearButton"" onclick = ""clearResponse()"">L&ouml;schen</button><p><u><b>Ihre Antwort:</b></u></p><div id=echoed_txt style=""font-size: 30px; color:blue;""><b></b></div></div>","","html-keyboard-response","98","1393483","0.0-0.0-1.9-0.9-2.9","auditory","A02F6F","13","BDS-RESPONSE","10","2,9,7,5,1,8,4,8,3,7","2,5,9,6,2,7,4,1,8,3","0","3,4,5,6,7,7,8,9,10,10,9,9","9","7",""
"","","","call-function","99","1393483","0.0-0.0-1.9-0.9-3.9","auditory","A02F6F","","","","","","","","","",""
"4199","<p>Test 11 von 12</p>","0","html-button-response","100","1397683","0.0-0.0-1.10-0.10-0.10","auditory","A02F6F","","","","","","","","","",""
"null","digits/nine.wav","","audio-keyboard-response","101","1398862","0.0-0.0-1.10-0.10-1.69-0.69","auditory","A02F6F","null","","","","","","","","",""
"null","digits/five.wav","","audio-keyboard-response","102","1399902","0.0-0.0-1.10-0.10-1.70-0.70","auditory","A02F6F","null","","","","","","","","",""
"null","digits/two.wav","","audio-keyboard-response","103","1400950","0.0-0.0-1.10-0.10-1.71-0.71","auditory","A02F6F","null","","","","","","","","",""
"null","digits/six.wav","","audio-keyboard-response","104","1401998","0.0-0.0-1.10-0.10-1.72-0.72","auditory","A02F6F","null","","","","","","","","",""
"null","digits/one.wav","","audio-keyboard-response","105","1403121","0.0-0.0-1.10-0.10-1.73-0.73","auditory","A02F6F","null","","","","","","","","",""
"null","digits/eight.wav","","audio-keyboard-response","106","1404001","0.0-0.0-1.10-0.10-1.74-0.74","auditory","A02F6F","null","","","","","","","","",""
"null","digits/three.wav","","audio-keyboard-response","107","1405004","0.0-0.0-1.10-0.10-1.75-0.75","auditory","A02F6F","null","","","","","","","","",""
"null","digits/four.wav","","audio-keyboard-response","108","1406017","0.0-0.0-1.10-0.10-1.76-0.76","auditory","A02F6F","null","","","","","","","","",""
"null","digits/seven.wav","","audio-keyboard-response","109","1407089","0.0-0.0-1.10-0.10-1.77-0.77","auditory","A02F6F","null","","","","","","","","",""
"45369","<div class = numbox><p>Wie lauteten die Zahlen <b>in umgekehrter Reihenfolge</b>?<br> Antwort mit Enter-Taste best&auml;tigen.</p><button id = button_1 class = ""square num-button"" onclick = ""recordClick(this)""><div class = content><div class = numbers>1</div></div></button><button id = button_2 class = ""square num-button"" onclick = ""recordClick(this)""><div class = content><div class = numbers>2</div></div></button><button id = button_3 class = ""square num-button"" onclick = ""recordClick(this)""><div class = content><div class = numbers>3</div></div></button><button id = button_4 class = ""square num-button"" onclick = ""recordClick(this)""><div class = content><div class = numbers>4</div></div></button><button id = button_5 class = ""square num-button"" onclick = ""recordClick(this)""><div class = content><div class = numbers>5</div></div></button><button id = button_6 class = ""square num-button"" onclick = ""recordClick(this)""><div class = content><div class = numbers>6</div></div></button><button id = button_7 class = ""square num-button"" onclick = ""recordClick(this)""><div class = content><div class = numbers>7</div></div></button><button id = button_8 class = ""square num-button"" onclick = ""recordClick(this)""><div class = content><div class = numbers>8</div></div></button><button id = button_9 class = ""square num-button"" onclick = ""recordClick(this)""><div class = content><div class = numbers>9</div></div></button><button class = clear_button id = ""ClearButton"" onclick = ""clearResponse()"">L&ouml;schen</button><p><u><b>Ihre Antwort:</b></u></p><div id=echoed_txt style=""font-size: 30px; color:blue;""><b></b></div></div>","","html-keyboard-response","110","1452710","0.0-0.0-1.10-0.10-2.10","auditory","A02F6F","13","BDS-RESPONSE","9","7,4,3,8,1,6,9,2,4","7,4,3,8,1,6,2,5,9","0","3,4,5,6,7,7,8,9,10,10,9,9","9","7",""
"","","","call-function","111","1452710","0.0-0.0-1.10-0.10-3.10","auditory","A02F6F","","","","","","","","","",""
"5237","<p>Test 12 von 12</p>","0","html-button-response","112","1457947","0.0-0.0-1.11-0.11-0.11","auditory","A02F6F","","","","","","","","","",""
"null","digits/three.wav","","audio-keyboard-response","113","1459199","0.0-0.0-1.11-0.11-1.78-0.78","auditory","A02F6F","null","","","","","","","","",""
"null","digits/eight.wav","","audio-keyboard-response","114","1460079","0.0-0.0-1.11-0.11-1.79-0.79","auditory","A02F6F","null","","","","","","","","",""
"null","digits/six.wav","","audio-keyboard-response","115","1461127","0.0-0.0-1.11-0.11-1.80-0.80","auditory","A02F6F","null","","","","","","","","",""
"null","digits/two.wav","","audio-keyboard-response","116","1462175","0.0-0.0-1.11-0.11-1.81-0.81","auditory","A02F6F","null","","","","","","","","",""
"null","digits/nine.wav","","audio-keyboard-response","117","1463106","0.0-0.0-1.11-0.11-1.82-0.82","auditory","A02F6F","null","","","","","","","","",""
"null","digits/four.wav","","audio-keyboard-response","118","1464119","0.0-0.0-1.11-0.11-1.83-0.83","auditory","A02F6F","null","","","","","","","","",""
"null","digits/seven.wav","","audio-keyboard-response","119","1465191","0.0-0.0-1.11-0.11-1.84-0.84","auditory","A02F6F","null","","","","","","","","",""
"null","digits/five.wav","","audio-keyboard-response","120","1466231","0.0-0.0-1.11-0.11-1.85-0.85","auditory","A02F6F","null","","","","","","","","",""
"null","digits/one.wav","","audio-keyboard-response","121","1467354","0.0-0.0-1.11-0.11-1.86-0.86","auditory","A02F6F","null","","","","","","","","",""
"35365","<div class = numbox><p>Wie lauteten die Zahlen <b>in umgekehrter Reihenfolge</b>?<br> Antwort mit Enter-Taste best&auml;tigen.</p><button id = button_1 class = ""square num-button"" onclick = ""recordClick(this)""><div class = content><div class = numbers>1</div></div></button><button id = button_2 class = ""square num-button"" onclick = ""recordClick(this)""><div class = content><div class = numbers>2</div></div></button><button id = button_3 class = ""square num-button"" onclick = ""recordClick(this)""><div class = content><div class = numbers>3</div></div></button><button id = button_4 class = ""square num-button"" onclick = ""recordClick(this)""><div class = content><div class = numbers>4</div></div></button><button id = button_5 class = ""square num-button"" onclick = ""recordClick(this)""><div class = content><div class = numbers>5</div></div></button><button id = button_6 class = ""square num-button"" onclick = ""recordClick(this)""><div class = content><div class = numbers>6</div></div></button><button id = button_7 class = ""square num-button"" onclick = ""recordClick(this)""><div class = content><div class = numbers>7</div></div></button><button id = button_8 class = ""square num-button"" onclick = ""recordClick(this)""><div class = content><div class = numbers>8</div></div></button><button id = button_9 class = ""square num-button"" onclick = ""recordClick(this)""><div class = content><div class = numbers>9</div></div></button><button class = clear_button id = ""ClearButton"" onclick = ""clearResponse()"">L&ouml;schen</button><p><u><b>Ihre Antwort:</b></u></p><div id=echoed_txt style=""font-size: 30px; color:blue;""><b></b></div></div>","","html-keyboard-response","122","1502970","0.0-0.0-1.11-0.11-2.11","auditory","A02F6F","13","BDS-RESPONSE","9","1,5,7,9,2,4,3,1,5","1,5,7,4,9,2,6,8,3","0","3,4,5,6,7,7,8,9,10,10,9,9","9","7",""
"","","","call-function","123","1502971","0.0-0.0-1.11-0.11-3.11","auditory","A02F6F","","","","","","","","","",""
"22616","<p>Die Aufgabe ist erledigt! Vielen Dank!</p><p>Die Gesamtzahl Ihrer korrekten Antworten ist <b>7</b>.</p>","0","html-button-response","124","1525592","0.0-1.0","auditory","A02F6F","","","","","","","","","",""
