"rt","stimulus","button_pressed","trial_type","trial_index","time_elapsed","internal_node_id","BDS_modality","subject","key_press","designation","span","answer","correct","was_correct","spanHistory","max_span","total_correct","value"
"28232","<p>Willkommen bei der <b>Ziffernspannen-Aufgabe.</b></p><p>Bei jedem Versuch h&ouml;ren Sie eine Ziffernfolge und sollen diese in umgekehrter Reihenfolge wiedergeben.</p><p>Zum Beispiel, falls sie die Zahlen <b style=""color:blue;"">Eins</b>, <b style=""color:blue;"">Zwei</b>, <b style=""color:blue;"">Drei</b>, geh&ouml;rt haben, dann antworten Sie mit <b style=""color:blue;"">3</b>, <b style=""color:blue;"">2</b>, <b style=""color:blue;"">1</b></p><p>Um eine hohe Qualit&auml;t der Daten zu gew&auml;hrleisten, ist es sehr wichtig, dass Sie keine Ged&auml;chtnisst&uuml;tze (z.B. Stift und Papier) verwenden.<br>Bitte bearbeiten Sie die Aufgabe ausschlie&#223;lich im Kopf.</p><p>Es werden insgesamt 12 Durchl&auml;ufe gemacht. Die Teilname dauert etwa 10 Minuten. Am Ende sehen sie Ihre erreichte Punktzahl.</p>","0","html-button-response","0","28235","0.0-0.0-0.0","auditory","A02F6F","","","","","","","","","",""
"1168","<p>Test 1 von 12</p>","0","html-button-response","1","29405","0.0-0.0-1.0-0.0-0.0","auditory","A02F6F","","","","","","","","","",""
"null","digits/five.wav","","audio-keyboard-response","2","31017","0.0-0.0-1.0-0.0-1.0-0.0","auditory","A02F6F","null","","","","","","","","",""
"null","digits/two.wav","","audio-keyboard-response","3","32065","0.0-0.0-1.0-0.0-1.1-0.1","auditory","A02F6F","null","","","","","","","","",""
"null","digits/four.wav","","audio-keyboard-response","4","33079","0.0-0.0-1.0-0.0-1.2-0.2","auditory","A02F6F","null","","","","","","","","",""
"5565","<div class = numbox><p>Wie lauteten die Zahlen <b>in umgekehrter Reihenfolge</b>?<br> Antwort mit Enter-Taste best&auml;tigen.</p><button id = button_1 class = ""square num-button"" onclick = ""recordClick(this)""><div class = content><div class = numbers>1</div></div></button><button id = button_2 class = ""square num-button"" onclick = ""recordClick(this)""><div class = content><div class = numbers>2</div></div></button><button id = button_3 class = ""square num-button"" onclick = ""recordClick(this)""><div class = content><div class = numbers>3</div></div></button><button id = button_4 class = ""square num-button"" onclick = ""recordClick(this)""><div class = content><div class = numbers>4</div></div></button><button id = button_5 class = ""square num-button"" onclick = ""recordClick(this)""><div class = content><div class = numbers>5</div></div></button><button id = button_6 class = ""square num-button"" onclick = ""recordClick(this)""><div class = content><div class = numbers>6</div></div></button><button id = button_7 class = ""square num-button"" onclick = ""recordClick(this)""><div class = content><div class = numbers>7</div></div></button><button id = button_8 class = ""square num-button"" onclick = ""recordClick(this)""><div class = content><div class = numbers>8</div></div></button><button id = button_9 class = ""square num-button"" onclick = ""recordClick(this)""><div class = content><div class = numbers>9</div></div></button><button class = clear_button id = ""ClearButton"" onclick = ""clearResponse()"">L&ouml;schen</button><p><u><b>Ihre Antwort:</b></u></p><div id=echoed_txt style=""font-size: 30px; color:blue;""><b></b></div></div>","","html-keyboard-response","5","38895","0.0-0.0-1.0-0.0-2.0","auditory","A02F6F","13","BDS-RESPONSE","3","4,2,5","4,2,5","1","3,4,5,6,7,7,6,6,7,8,8,9","0","0",""
"","","","call-function","6","38895","0.0-0.0-1.0-0.0-3.0","auditory","A02F6F","","","","","","","","","",""
"1295","<p>Test 2 von 12</p>","0","html-button-response","7","40191","0.0-0.0-1.1-0.1-0.1","auditory","A02F6F","","","","","","","","","",""
"null","digits/three.wav","","audio-keyboard-response","8","41444","0.0-0.0-1.1-0.1-1.3-0.3","auditory","A02F6F","null","","","","","","","","",""
"null","digits/five.wav","","audio-keyboard-response","9","42484","0.0-0.0-1.1-0.1-1.4-0.4","auditory","A02F6F","null","","","","","","","","",""
"null","digits/seven.wav","","audio-keyboard-response","10","43556","0.0-0.0-1.1-0.1-1.5-0.5","auditory","A02F6F","null","","","","","","","","",""
"null","digits/eight.wav","","audio-keyboard-response","11","44436","0.0-0.0-1.1-0.1-1.6-0.6","auditory","A02F6F","null","","","","","","","","",""
"5161","<div class = numbox><p>Wie lauteten die Zahlen <b>in umgekehrter Reihenfolge</b>?<br> Antwort mit Enter-Taste best&auml;tigen.</p><button id = button_1 class = ""square num-button"" onclick = ""recordClick(this)""><div class = content><div class = numbers>1</div></div></button><button id = button_2 class = ""square num-button"" onclick = ""recordClick(this)""><div class = content><div class = numbers>2</div></div></button><button id = button_3 class = ""square num-button"" onclick = ""recordClick(this)""><div class = content><div class = numbers>3</div></div></button><button id = button_4 class = ""square num-button"" onclick = ""recordClick(this)""><div class = content><div class = numbers>4</div></div></button><button id = button_5 class = ""square num-button"" onclick = ""recordClick(this)""><div class = content><div class = numbers>5</div></div></button><button id = button_6 class = ""square num-button"" onclick = ""recordClick(this)""><div class = content><div class = numbers>6</div></div></button><button id = button_7 class = ""square num-button"" onclick = ""recordClick(this)""><div class = content><div class = numbers>7</div></div></button><button id = button_8 class = ""square num-button"" onclick = ""recordClick(this)""><div class = content><div class = numbers>8</div></div></button><button id = button_9 class = ""square num-button"" onclick = ""recordClick(this)""><div class = content><div class = numbers>9</div></div></button><button class = clear_button id = ""ClearButton"" onclick = ""clearResponse()"">L&ouml;schen</button><p><u><b>Ihre Antwort:</b></u></p><div id=echoed_txt style=""font-size: 30px; color:blue;""><b></b></div></div>","","html-keyboard-response","12","49848","0.0-0.0-1.1-0.1-2.1","auditory","A02F6F","13","BDS-RESPONSE","4","8,7,5,3","8,7,5,3","1","3,4,5,6,7,7,6,6,7,8,8,9","3","1",""
"","","","call-function","13","49848","0.0-0.0-1.1-0.1-3.1","auditory","A02F6F","","","","","","","","","",""
"1191","<p>Test 3 von 12</p>","0","html-button-response","14","51039","0.0-0.0-1.2-0.2-0.2","auditory","A02F6F","","","","","","","","","",""
"null","digits/six.wav","","audio-keyboard-response","15","52338","0.0-0.0-1.2-0.2-1.7-0.7","auditory","A02F6F","null","","","","","","","","",""
"null","digits/nine.wav","","audio-keyboard-response","16","53268","0.0-0.0-1.2-0.2-1.8-0.8","auditory","A02F6F","null","","","","","","","","",""
"null","digits/eight.wav","","audio-keyboard-response","17","54148","0.0-0.0-1.2-0.2-1.9-0.9","auditory","A02F6F","null","","","","","","","","",""
"null","digits/four.wav","","audio-keyboard-response","18","55162","0.0-0.0-1.2-0.2-1.10-0.10","auditory","A02F6F","null","","","","","","","","",""
"null","digits/two.wav","","audio-keyboard-response","19","56210","0.0-0.0-1.2-0.2-1.11-0.11","auditory","A02F6F","null","","","","","","","","",""
"7316","<div class = numbox><p>Wie lauteten die Zahlen <b>in umgekehrter Reihenfolge</b>?<br> Antwort mit Enter-Taste best&auml;tigen.</p><button id = button_1 class = ""square num-button"" onclick = ""recordClick(this)""><div class = content><div class = numbers>1</div></div></button><button id = button_2 class = ""square num-button"" onclick = ""recordClick(this)""><div class = content><div class = numbers>2</div></div></button><button id = button_3 class = ""square num-button"" onclick = ""recordClick(this)""><div class = content><div class = numbers>3</div></div></button><button id = button_4 class = ""square num-button"" onclick = ""recordClick(this)""><div class = content><div class = numbers>4</div></div></button><button id = button_5 class = ""square num-button"" onclick = ""recordClick(this)""><div class = content><div class = numbers>5</div></div></button><button id = button_6 class = ""square num-button"" onclick = ""recordClick(this)""><div class = content><div class = numbers>6</div></div></button><button id = button_7 class = ""square num-button"" onclick = ""recordClick(this)""><div class = content><div class = numbers>7</div></div></button><button id = button_8 class = ""square num-button"" onclick = ""recordClick(this)""><div class = content><div class = numbers>8</div></div></button><button id = button_9 class = ""square num-button"" onclick = ""recordClick(this)""><div class = content><div class = numbers>9</div></div></button><button class = clear_button id = ""ClearButton"" onclick = ""clearResponse()"">L&ouml;schen</button><p><u><b>Ihre Antwort:</b></u></p><div id=echoed_txt style=""font-size: 30px; color:blue;""><b></b></div></div>","","html-keyboard-response","20","63778","0.0-0.0-1.2-0.2-2.2","auditory","A02F6F","13","BDS-RESPONSE","5","2,4,8,9,6","2,4,8,9,6","1","3,4,5,6,7,7,6,6,7,8,8,9","4","2",""
"","","","call-function","21","63778","0.0-0.0-1.2-0.2-3.2","auditory","A02F6F","","","","","","","","","",""
"1015","<p>Test 4 von 12</p>","0","html-button-response","22","64793","0.0-0.0-1.3-0.3-0.3","auditory","A02F6F","","","","","","","","","",""
"null","digits/three.wav","","audio-keyboard-response","23","66045","0.0-0.0-1.3-0.3-1.12-0.12","auditory","A02F6F","null","","","","","","","","",""
"null","digits/eight.wav","","audio-keyboard-response","24","66924","0.0-0.0-1.3-0.3-1.13-0.13","auditory","A02F6F","null","","","","","","","","",""
"null","digits/four.wav","","audio-keyboard-response","25","67938","0.0-0.0-1.3-0.3-1.14-0.14","auditory","A02F6F","null","","","","","","","","",""
"null","digits/one.wav","","audio-keyboard-response","26","69061","0.0-0.0-1.3-0.3-1.15-0.15","auditory","A02F6F","null","","","","","","","","",""
"null","digits/two.wav","","audio-keyboard-response","27","70109","0.0-0.0-1.3-0.3-1.16-0.16","auditory","A02F6F","null","","","","","","","","",""
"null","digits/six.wav","","audio-keyboard-response","28","71157","0.0-0.0-1.3-0.3-1.17-0.17","auditory","A02F6F","null","","","","","","","","",""
"5286","<div class = numbox><p>Wie lauteten die Zahlen <b>in umgekehrter Reihenfolge</b>?<br> Antwort mit Enter-Taste best&auml;tigen.</p><button id = button_1 class = ""square num-button"" onclick = ""recordClick(this)""><div class = content><div class = numbers>1</div></div></button><button id = button_2 class = ""square num-button"" onclick = ""recordClick(this)""><div class = content><div class = numbers>2</div></div></button><button id = button_3 class = ""square num-button"" onclick = ""recordClick(this)""><div class = content><div class = numbers>3</div></div></button><button id = button_4 class = ""square num-button"" onclick = ""recordClick(this)""><div class = content><div class = numbers>4</div></div></button><button id = button_5 class = ""square num-button"" onclick = ""recordClick(this)""><div class = content><div class = numbers>5</div></div></button><button id = button_6 class = ""square num-button"" onclick = ""recordClick(this)""><div class = content><div class = numbers>6</div></div></button><button id = button_7 class = ""square num-button"" onclick = ""recordClick(this)""><div class = content><div class = numbers>7</div></div></button><button id = button_8 class = ""square num-button"" onclick = ""recordClick(this)""><div class = content><div class = numbers>8</div></div></button><button id = button_9 class = ""square num-button"" onclick = ""recordClick(this)""><div class = content><div class = numbers>9</div></div></button><button class = clear_button id = ""ClearButton"" onclick = ""clearResponse()"">L&ouml;schen</button><p><u><b>Ihre Antwort:</b></u></p><div id=echoed_txt style=""font-size: 30px; color:blue;""><b></b></div></div>","","html-keyboard-response","29","76694","0.0-0.0-1.3-0.3-2.3","auditory","A02F6F","13","BDS-RESPONSE","6","6,2,1,4,8,3","6,2,1,4,8,3","1","3,4,5,6,7,7,6,6,7,8,8,9","5","3",""
"","","","call-function","30","76694","0.0-0.0-1.3-0.3-3.3","auditory","A02F6F","","","","","","","","","",""
"840","<p>Test 5 von 12</p>","0","html-button-response","31","77534","0.0-0.0-1.4-0.4-0.4","auditory","A02F6F","","","","","","","","","",""
"null","digits/one.wav","","audio-keyboard-response","32","78906","0.0-0.0-1.4-0.4-1.18-0.18","auditory","A02F6F","null","","","","","","","","",""
"null","digits/seven.wav","","audio-keyboard-response","33","79978","0.0-0.0-1.4-0.4-1.19-0.19","auditory","A02F6F","null","","","","","","","","",""
"null","digits/five.wav","","audio-keyboard-response","34","81018","0.0-0.0-1.4-0.4-1.20-0.20","auditory","A02F6F","null","","","","","","","","",""
"null","digits/two.wav","","audio-keyboard-response","35","82066","0.0-0.0-1.4-0.4-1.21-0.21","auditory","A02F6F","null","","","","","","","","",""
"null","digits/six.wav","","audio-keyboard-response","36","83114","0.0-0.0-1.4-0.4-1.22-0.22","auditory","A02F6F","null","","","","","","","","",""
"null","digits/nine.wav","","audio-keyboard-response","37","84045","0.0-0.0-1.4-0.4-1.23-0.23","auditory","A02F6F","null","","","","","","","","",""
"null","digits/four.wav","","audio-keyboard-response","38","85058","0.0-0.0-1.4-0.4-1.24-0.24","auditory","A02F6F","null","","","","","","","","",""
"39808","<div class = numbox><p>Wie lauteten die Zahlen <b>in umgekehrter Reihenfolge</b>?<br> Antwort mit Enter-Taste best&auml;tigen.</p><button id = button_1 class = ""square num-button"" onclick = ""recordClick(this)""><div class = content><div class = numbers>1</div></div></button><button id = button_2 class = ""square num-button"" onclick = ""recordClick(this)""><div class = content><div class = numbers>2</div></div></button><button id = button_3 class = ""square num-button"" onclick = ""recordClick(this)""><div class = content><div class = numbers>3</div></div></button><button id = button_4 class = ""square num-button"" onclick = ""recordClick(this)""><div class = content><div class = numbers>4</div></div></button><button id = button_5 class = ""square num-button"" onclick = ""recordClick(this)""><div class = content><div class = numbers>5</div></div></button><button id = button_6 class = ""square num-button"" onclick = ""recordClick(this)""><div class = content><div class = numbers>6</div></div></button><button id = button_7 class = ""square num-button"" onclick = ""recordClick(this)""><div class = content><div class = numbers>7</div></div></button><button id = button_8 class = ""square num-button"" onclick = ""recordClick(this)""><div class = content><div class = numbers>8</div></div></button><button id = button_9 class = ""square num-button"" onclick = ""recordClick(this)""><div class = content><div class = numbers>9</div></div></button><button class = clear_button id = ""ClearButton"" onclick = ""clearResponse()"">L&ouml;schen</button><p><u><b>Ihre Antwort:</b></u></p><div id=echoed_txt style=""font-size: 30px; color:blue;""><b></b></div></div>","","html-keyboard-response","39","125117","0.0-0.0-1.4-0.4-2.4","auditory","A02F6F","13","BDS-RESPONSE","7","4,9,2,5,6,1,7","4,9,6,2,5,7,1","0","3,4,5,6,7,7,6,6,7,8,8,9","6","4",""
"","","","call-function","40","125117","0.0-0.0-1.4-0.4-3.4","auditory","A02F6F","","","","","","","","","",""
"1324","<p>Test 6 von 12</p>","0","html-button-response","41","126443","0.0-0.0-1.5-0.5-0.5","auditory","A02F6F","","","","","","","","","",""
"null","digits/nine.wav","","audio-keyboard-response","42","127621","0.0-0.0-1.5-0.5-1.25-0.25","auditory","A02F6F","null","","","","","","","","",""
"null","digits/eight.wav","","audio-keyboard-response","43","128502","0.0-0.0-1.5-0.5-1.26-0.26","auditory","A02F6F","null","","","","","","","","",""
"null","digits/three.wav","","audio-keyboard-response","44","129504","0.0-0.0-1.5-0.5-1.27-0.27","auditory","A02F6F","null","","","","","","","","",""
"null","digits/five.wav","","audio-keyboard-response","45","130544","0.0-0.0-1.5-0.5-1.28-0.28","auditory","A02F6F","null","","","","","","","","",""
"null","digits/two.wav","","audio-keyboard-response","46","131592","0.0-0.0-1.5-0.5-1.29-0.29","auditory","A02F6F","null","","","","","","","","",""
"null","digits/seven.wav","","audio-keyboard-response","47","132664","0.0-0.0-1.5-0.5-1.30-0.30","auditory","A02F6F","null","","","","","","","","",""
"null","digits/four.wav","","audio-keyboard-response","48","133678","0.0-0.0-1.5-0.5-1.31-0.31","auditory","A02F6F","null","","","","","","","","",""
"57108","<div class = numbox><p>Wie lauteten die Zahlen <b>in umgekehrter Reihenfolge</b>?<br> Antwort mit Enter-Taste best&auml;tigen.</p><button id = button_1 class = ""square num-button"" onclick = ""recordClick(this)""><div class = content><div class = numbers>1</div></div></button><button id = button_2 class = ""square num-button"" onclick = ""recordClick(this)""><div class = content><div class = numbers>2</div></div></button><button id = button_3 class = ""square num-button"" onclick = ""recordClick(this)""><div class = content><div class = numbers>3</div></div></button><button id = button_4 class = ""square num-button"" onclick = ""recordClick(this)""><div class = content><div class = numbers>4</div></div></button><button id = button_5 class = ""square num-button"" onclick = ""recordClick(this)""><div class = content><div class = numbers>5</div></div></button><button id = button_6 class = ""square num-button"" onclick = ""recordClick(this)""><div class = content><div class = numbers>6</div></div></button><button id = button_7 class = ""square num-button"" onclick = ""recordClick(this)""><div class = content><div class = numbers>7</div></div></button><button id = button_8 class = ""square num-button"" onclick = ""recordClick(this)""><div class = content><div class = numbers>8</div></div></button><button id = button_9 class = ""square num-button"" onclick = ""recordClick(this)""><div class = content><div class = numbers>9</div></div></button><button class = clear_button id = ""ClearButton"" onclick = ""clearResponse()"">L&ouml;schen</button><p><u><b>Ihre Antwort:</b></u></p><div id=echoed_txt style=""font-size: 30px; color:blue;""><b></b></div></div>","","html-keyboard-response","49","191037","0.0-0.0-1.5-0.5-2.5","auditory","A02F6F","13","BDS-RESPONSE","7","9,8,3,5,2,4,7","4,7,2,5,3,8,9","0","3,4,5,6,7,7,6,6,7,8,8,9","6","4",""
"","","","call-function","50","191037","0.0-0.0-1.5-0.5-3.5","auditory","A02F6F","","","","","","","","","",""
"1223","<p>Test 7 von 12</p>","0","html-button-response","51","192260","0.0-0.0-1.6-0.6-0.6","auditory","A02F6F","","","","","","","","","",""
"null","digits/two.wav","","audio-keyboard-response","52","193556","0.0-0.0-1.6-0.6-1.32-0.32","auditory","A02F6F","null","","","","","","","","",""
"null","digits/eight.wav","","audio-keyboard-response","53","194436","0.0-0.0-1.6-0.6-1.33-0.33","auditory","A02F6F","null","","","","","","","","",""
"null","digits/three.wav","","audio-keyboard-response","54","195439","0.0-0.0-1.6-0.6-1.34-0.34","auditory","A02F6F","null","","","","","","","","",""
"null","digits/six.wav","","audio-keyboard-response","55","196487","0.0-0.0-1.6-0.6-1.35-0.35","auditory","A02F6F","null","","","","","","","","",""
"null","digits/nine.wav","","audio-keyboard-response","56","197418","0.0-0.0-1.6-0.6-1.36-0.36","auditory","A02F6F","null","","","","","","","","",""
"null","digits/four.wav","","audio-keyboard-response","57","198431","0.0-0.0-1.6-0.6-1.37-0.37","auditory","A02F6F","null","","","","","","","","",""
"40901","<div class = numbox><p>Wie lauteten die Zahlen <b>in umgekehrter Reihenfolge</b>?<br> Antwort mit Enter-Taste best&auml;tigen.</p><button id = button_1 class = ""square num-button"" onclick = ""recordClick(this)""><div class = content><div class = numbers>1</div></div></button><button id = button_2 class = ""square num-button"" onclick = ""recordClick(this)""><div class = content><div class = numbers>2</div></div></button><button id = button_3 class = ""square num-button"" onclick = ""recordClick(this)""><div class = content><div class = numbers>3</div></div></button><button id = button_4 class = ""square num-button"" onclick = ""recordClick(this)""><div class = content><div class = numbers>4</div></div></button><button id = button_5 class = ""square num-button"" onclick = ""recordClick(this)""><div class = content><div class = numbers>5</div></div></button><button id = button_6 class = ""square num-button"" onclick = ""recordClick(this)""><div class = content><div class = numbers>6</div></div></button><button id = button_7 class = ""square num-button"" onclick = ""recordClick(this)""><div class = content><div class = numbers>7</div></div></button><button id = button_8 class = ""square num-button"" onclick = ""recordClick(this)""><div class = content><div class = numbers>8</div></div></button><button id = button_9 class = ""square num-button"" onclick = ""recordClick(this)""><div class = content><div class = numbers>9</div></div></button><button class = clear_button id = ""ClearButton"" onclick = ""clearResponse()"">L&ouml;schen</button><p><u><b>Ihre Antwort:</b></u></p><div id=echoed_txt style=""font-size: 30px; color:blue;""><b></b></div></div>","","html-keyboard-response","58","239583","0.0-0.0-1.6-0.6-2.6","auditory","A02F6F","13","BDS-RESPONSE","6","4,6,9,3,8,2","4,9,6,3,8,2","0","3,4,5,6,7,7,6,6,7,8,8,9","6","4",""
"","","","call-function","59","239584","0.0-0.0-1.6-0.6-3.6","auditory","A02F6F","","","","","","","","","",""
"831","<p>Test 8 von 12</p>","0","html-button-response","60","240415","0.0-0.0-1.7-0.7-0.7","auditory","A02F6F","","","","","","","","","",""
"null","digits/one.wav","","audio-keyboard-response","61","241786","0.0-0.0-1.7-0.7-1.38-0.38","auditory","A02F6F","null","","","","","","","","",""
"null","digits/four.wav","","audio-keyboard-response","62","242800","0.0-0.0-1.7-0.7-1.39-0.39","auditory","A02F6F","null","","","","","","","","",""
"null","digits/three.wav","","audio-keyboard-response","63","243802","0.0-0.0-1.7-0.7-1.40-0.40","auditory","A02F6F","null","","","","","","","","",""
"null","digits/nine.wav","","audio-keyboard-response","64","244733","0.0-0.0-1.7-0.7-1.41-0.41","auditory","A02F6F","null","","","","","","","","",""
"null","digits/six.wav","","audio-keyboard-response","65","245781","0.0-0.0-1.7-0.7-1.42-0.42","auditory","A02F6F","null","","","","","","","","",""
"null","digits/eight.wav","","audio-keyboard-response","66","246661","0.0-0.0-1.7-0.7-1.43-0.43","auditory","A02F6F","null","","","","","","","","",""
"17105","<div class = numbox><p>Wie lauteten die Zahlen <b>in umgekehrter Reihenfolge</b>?<br> Antwort mit Enter-Taste best&auml;tigen.</p><button id = button_1 class = ""square num-button"" onclick = ""recordClick(this)""><div class = content><div class = numbers>1</div></div></button><button id = button_2 class = ""square num-button"" onclick = ""recordClick(this)""><div class = content><div class = numbers>2</div></div></button><button id = button_3 class = ""square num-button"" onclick = ""recordClick(this)""><div class = content><div class = numbers>3</div></div></button><button id = button_4 class = ""square num-button"" onclick = ""recordClick(this)""><div class = content><div class = numbers>4</div></div></button><button id = button_5 class = ""square num-button"" onclick = ""recordClick(this)""><div class = content><div class = numbers>5</div></div></button><button id = button_6 class = ""square num-button"" onclick = ""recordClick(this)""><div class = content><div class = numbers>6</div></div></button><button id = button_7 class = ""square num-button"" onclick = ""recordClick(this)""><div class = content><div class = numbers>7</div></div></button><button id = button_8 class = ""square num-button"" onclick = ""recordClick(this)""><div class = content><div class = numbers>8</div></div></button><button id = button_9 class = ""square num-button"" onclick = ""recordClick(this)""><div class = content><div class = numbers>9</div></div></button><button class = clear_button id = ""ClearButton"" onclick = ""clearResponse()"">L&ouml;schen</button><p><u><b>Ihre Antwort:</b></u></p><div id=echoed_txt style=""font-size: 30px; color:blue;""><b></b></div></div>","","html-keyboard-response","67","264017","0.0-0.0-1.7-0.7-2.7","auditory","A02F6F","13","BDS-RESPONSE","6","8,6,9,3,4,1","8,6,9,3,4,1","1","3,4,5,6,7,7,6,6,7,8,8,9","6","4",""
"","","","call-function","68","264017","0.0-0.0-1.7-0.7-3.7","auditory","A02F6F","","","","","","","","","",""
"984","<p>Test 9 von 12</p>","0","html-button-response","69","265001","0.0-0.0-1.8-0.8-0.8","auditory","A02F6F","","","","","","","","","",""
"null","digits/four.wav","","audio-keyboard-response","70","266264","0.0-0.0-1.8-0.8-1.44-0.44","auditory","A02F6F","null","","","","","","","","",""
"null","digits/six.wav","","audio-keyboard-response","71","267312","0.0-0.0-1.8-0.8-1.45-0.45","auditory","A02F6F","null","","","","","","","","",""
"null","digits/seven.wav","","audio-keyboard-response","72","268384","0.0-0.0-1.8-0.8-1.46-0.46","auditory","A02F6F","null","","","","","","","","",""
"null","digits/one.wav","","audio-keyboard-response","73","269507","0.0-0.0-1.8-0.8-1.47-0.47","auditory","A02F6F","null","","","","","","","","",""
"null","digits/two.wav","","audio-keyboard-response","74","270555","0.0-0.0-1.8-0.8-1.48-0.48","auditory","A02F6F","null","","","","","","","","",""
"null","digits/five.wav","","audio-keyboard-response","75","271595","0.0-0.0-1.8-0.8-1.49-0.49","auditory","A02F6F","null","","","","","","","","",""
"null","digits/eight.wav","","audio-keyboard-response","76","272475","0.0-0.0-1.8-0.8-1.50-0.50","auditory","A02F6F","null","","","","","","","","",""
"12164","<div class = numbox><p>Wie lauteten die Zahlen <b>in umgekehrter Reihenfolge</b>?<br> Antwort mit Enter-Taste best&auml;tigen.</p><button id = button_1 class = ""square num-button"" onclick = ""recordClick(this)""><div class = content><div class = numbers>1</div></div></button><button id = button_2 class = ""square num-button"" onclick = ""recordClick(this)""><div class = content><div class = numbers>2</div></div></button><button id = button_3 class = ""square num-button"" onclick = ""recordClick(this)""><div class = content><div class = numbers>3</div></div></button><button id = button_4 class = ""square num-button"" onclick = ""recordClick(this)""><div class = content><div class = numbers>4</div></div></button><button id = button_5 class = ""square num-button"" onclick = ""recordClick(this)""><div class = content><div class = numbers>5</div></div></button><button id = button_6 class = ""square num-button"" onclick = ""recordClick(this)""><div class = content><div class = numbers>6</div></div></button><button id = button_7 class = ""square num-button"" onclick = ""recordClick(this)""><div class = content><div class = numbers>7</div></div></button><button id = button_8 class = ""square num-button"" onclick = ""recordClick(this)""><div class = content><div class = numbers>8</div></div></button><button id = button_9 class = ""square num-button"" onclick = ""recordClick(this)""><div class = content><div class = numbers>9</div></div></button><button class = clear_button id = ""ClearButton"" onclick = ""clearResponse()"">L&ouml;schen</button><p><u><b>Ihre Antwort:</b></u></p><div id=echoed_txt style=""font-size: 30px; color:blue;""><b></b></div></div>","","html-keyboard-response","77","284890","0.0-0.0-1.8-0.8-2.8","auditory","A02F6F","13","BDS-RESPONSE","7","8,5,2,1,7,6,4","8,5,2,1,7,6,4","1","3,4,5,6,7,7,6,6,7,8,8,9","6","5",""
"","","","call-function","78","284890","0.0-0.0-1.8-0.8-3.8","auditory","A02F6F","","","","","","","","","",""
"1001","<p>Test 10 von 12</p>","0","html-button-response","79","285891","0.0-0.0-1.9-0.9-0.9","auditory","A02F6F","","","","","","","","","",""
"null","digits/three.wav","","audio-keyboard-response","80","287144","0.0-0.0-1.9-0.9-1.51-0.51","auditory","A02F6F","null","","","","","","","","",""
"null","digits/five.wav","","audio-keyboard-response","81","288184","0.0-0.0-1.9-0.9-1.52-0.52","auditory","A02F6F","null","","","","","","","","",""
"null","digits/one.wav","","audio-keyboard-response","82","289307","0.0-0.0-1.9-0.9-1.53-0.53","auditory","A02F6F","null","","","","","","","","",""
"null","digits/seven.wav","","audio-keyboard-response","83","290379","0.0-0.0-1.9-0.9-1.54-0.54","auditory","A02F6F","null","","","","","","","","",""
"null","digits/four.wav","","audio-keyboard-response","84","291393","0.0-0.0-1.9-0.9-1.55-0.55","auditory","A02F6F","null","","","","","","","","",""
"null","digits/eight.wav","","audio-keyboard-response","85","292272","0.0-0.0-1.9-0.9-1.56-0.56","auditory","A02F6F","null","","","","","","","","",""
"null","digits/two.wav","","audio-keyboard-response","86","293321","0.0-0.0-1.9-0.9-1.57-0.57","auditory","A02F6F","null","","","","","","","","",""
"null","digits/six.wav","","audio-keyboard-response","87","294369","0.0-0.0-1.9-0.9-1.58-0.58","auditory","A02F6F","null","","","","","","","","",""
"29222","<div class = numbox><p>Wie lauteten die Zahlen <b>in umgekehrter Reihenfolge</b>?<br> Antwort mit Enter-Taste best&auml;tigen.</p><button id = button_1 class = ""square num-button"" onclick = ""recordClick(this)""><div class = content><div class = numbers>1</div></div></button><button id = button_2 class = ""square num-button"" onclick = ""recordClick(this)""><div class = content><div class = numbers>2</div></div></button><button id = button_3 class = ""square num-button"" onclick = ""recordClick(this)""><div class = content><div class = numbers>3</div></div></button><button id = button_4 class = ""square num-button"" onclick = ""recordClick(this)""><div class = content><div class = numbers>4</div></div></button><button id = button_5 class = ""square num-button"" onclick = ""recordClick(this)""><div class = content><div class = numbers>5</div></div></button><button id = button_6 class = ""square num-button"" onclick = ""recordClick(this)""><div class = content><div class = numbers>6</div></div></button><button id = button_7 class = ""square num-button"" onclick = ""recordClick(this)""><div class = content><div class = numbers>7</div></div></button><button id = button_8 class = ""square num-button"" onclick = ""recordClick(this)""><div class = content><div class = numbers>8</div></div></button><button id = button_9 class = ""square num-button"" onclick = ""recordClick(this)""><div class = content><div class = numbers>9</div></div></button><button class = clear_button id = ""ClearButton"" onclick = ""clearResponse()"">L&ouml;schen</button><p><u><b>Ihre Antwort:</b></u></p><div id=echoed_txt style=""font-size: 30px; color:blue;""><b></b></div></div>","","html-keyboard-response","88","323841","0.0-0.0-1.9-0.9-2.9","auditory","A02F6F","13","BDS-RESPONSE","8","6,2,8,7,4,1,5,3","6,2,8,4,7,1,5,3","0","3,4,5,6,7,7,6,6,7,8,8,9","7","6",""
"","","","call-function","89","323841","0.0-0.0-1.9-0.9-3.9","auditory","A02F6F","","","","","","","","","",""
"941","<p>Test 11 von 12</p>","0","html-button-response","90","324782","0.0-0.0-1.10-0.10-0.10","auditory","A02F6F","","","","","","","","","",""
"null","digits/six.wav","","audio-keyboard-response","91","326081","0.0-0.0-1.10-0.10-1.59-0.59","auditory","A02F6F","null","","","","","","","","",""
"null","digits/seven.wav","","audio-keyboard-response","92","327153","0.0-0.0-1.10-0.10-1.60-0.60","auditory","A02F6F","null","","","","","","","","",""
"null","digits/nine.wav","","audio-keyboard-response","93","328084","0.0-0.0-1.10-0.10-1.61-0.61","auditory","A02F6F","null","","","","","","","","",""
"null","digits/one.wav","","audio-keyboard-response","94","329206","0.0-0.0-1.10-0.10-1.62-0.62","auditory","A02F6F","null","","","","","","","","",""
"null","digits/three.wav","","audio-keyboard-response","95","330209","0.0-0.0-1.10-0.10-1.63-0.63","auditory","A02F6F","null","","","","","","","","",""
"null","digits/four.wav","","audio-keyboard-response","96","331222","0.0-0.0-1.10-0.10-1.64-0.64","auditory","A02F6F","null","","","","","","","","",""
"null","digits/two.wav","","audio-keyboard-response","97","332271","0.0-0.0-1.10-0.10-1.65-0.65","auditory","A02F6F","null","","","","","","","","",""
"null","digits/five.wav","","audio-keyboard-response","98","333310","0.0-0.0-1.10-0.10-1.66-0.66","auditory","A02F6F","null","","","","","","","","",""
"8770","<div class = numbox><p>Wie lauteten die Zahlen <b>in umgekehrter Reihenfolge</b>?<br> Antwort mit Enter-Taste best&auml;tigen.</p><button id = button_1 class = ""square num-button"" onclick = ""recordClick(this)""><div class = content><div class = numbers>1</div></div></button><button id = button_2 class = ""square num-button"" onclick = ""recordClick(this)""><div class = content><div class = numbers>2</div></div></button><button id = button_3 class = ""square num-button"" onclick = ""recordClick(this)""><div class = content><div class = numbers>3</div></div></button><button id = button_4 class = ""square num-button"" onclick = ""recordClick(this)""><div class = content><div class = numbers>4</div></div></button><button id = button_5 class = ""square num-button"" onclick = ""recordClick(this)""><div class = content><div class = numbers>5</div></div></button><button id = button_6 class = ""square num-button"" onclick = ""recordClick(this)""><div class = content><div class = numbers>6</div></div></button><button id = button_7 class = ""square num-button"" onclick = ""recordClick(this)""><div class = content><div class = numbers>7</div></div></button><button id = button_8 class = ""square num-button"" onclick = ""recordClick(this)""><div class = content><div class = numbers>8</div></div></button><button id = button_9 class = ""square num-button"" onclick = ""recordClick(this)""><div class = content><div class = numbers>9</div></div></button><button class = clear_button id = ""ClearButton"" onclick = ""clearResponse()"">L&ouml;schen</button><p><u><b>Ihre Antwort:</b></u></p><div id=echoed_txt style=""font-size: 30px; color:blue;""><b></b></div></div>","","html-keyboard-response","99","342333","0.0-0.0-1.10-0.10-2.10","auditory","A02F6F","13","BDS-RESPONSE","8","5,2,4,3,1,9,7,6","5,2,4,3,1,9,7,6","1","3,4,5,6,7,7,6,6,7,8,8,9","7","6",""
"","","","call-function","100","342333","0.0-0.0-1.10-0.10-3.10","auditory","A02F6F","","","","","","","","","",""
"1077","<p>Test 12 von 12</p>","0","html-button-response","101","343410","0.0-0.0-1.11-0.11-0.11","auditory","A02F6F","","","","","","","","","",""
"null","digits/six.wav","","audio-keyboard-response","102","344708","0.0-0.0-1.11-0.11-1.67-0.67","auditory","A02F6F","null","","","","","","","","",""
"null","digits/one.wav","","audio-keyboard-response","103","345831","0.0-0.0-1.11-0.11-1.68-0.68","auditory","A02F6F","null","","","","","","","","",""
"null","digits/two.wav","","audio-keyboard-response","104","346879","0.0-0.0-1.11-0.11-1.69-0.69","auditory","A02F6F","null","","","","","","","","",""
"null","digits/eight.wav","","audio-keyboard-response","105","347759","0.0-0.0-1.11-0.11-1.70-0.70","auditory","A02F6F","null","","","","","","","","",""
"null","digits/four.wav","","audio-keyboard-response","106","348772","0.0-0.0-1.11-0.11-1.71-0.71","auditory","A02F6F","null","","","","","","","","",""
"null","digits/nine.wav","","audio-keyboard-response","107","349703","0.0-0.0-1.11-0.11-1.72-0.72","auditory","A02F6F","null","","","","","","","","",""
"null","digits/three.wav","","audio-keyboard-response","108","350705","0.0-0.0-1.11-0.11-1.73-0.73","auditory","A02F6F","null","","","","","","","","",""
"null","digits/five.wav","","audio-keyboard-response","109","351745","0.0-0.0-1.11-0.11-1.74-0.74","auditory","A02F6F","null","","","","","","","","",""
"null","digits/seven.wav","","audio-keyboard-response","110","352817","0.0-0.0-1.11-0.11-1.75-0.75","auditory","A02F6F","null","","","","","","","","",""
"20770","<div class = numbox><p>Wie lauteten die Zahlen <b>in umgekehrter Reihenfolge</b>?<br> Antwort mit Enter-Taste best&auml;tigen.</p><button id = button_1 class = ""square num-button"" onclick = ""recordClick(this)""><div class = content><div class = numbers>1</div></div></button><button id = button_2 class = ""square num-button"" onclick = ""recordClick(this)""><div class = content><div class = numbers>2</div></div></button><button id = button_3 class = ""square num-button"" onclick = ""recordClick(this)""><div class = content><div class = numbers>3</div></div></button><button id = button_4 class = ""square num-button"" onclick = ""recordClick(this)""><div class = content><div class = numbers>4</div></div></button><button id = button_5 class = ""square num-button"" onclick = ""recordClick(this)""><div class = content><div class = numbers>5</div></div></button><button id = button_6 class = ""square num-button"" onclick = ""recordClick(this)""><div class = content><div class = numbers>6</div></div></button><button id = button_7 class = ""square num-button"" onclick = ""recordClick(this)""><div class = content><div class = numbers>7</div></div></button><button id = button_8 class = ""square num-button"" onclick = ""recordClick(this)""><div class = content><div class = numbers>8</div></div></button><button id = button_9 class = ""square num-button"" onclick = ""recordClick(this)""><div class = content><div class = numbers>9</div></div></button><button class = clear_button id = ""ClearButton"" onclick = ""clearResponse()"">L&ouml;schen</button><p><u><b>Ihre Antwort:</b></u></p><div id=echoed_txt style=""font-size: 30px; color:blue;""><b></b></div></div>","","html-keyboard-response","111","373839","0.0-0.0-1.11-0.11-2.11","auditory","A02F6F","13","BDS-RESPONSE","9","7,5,3,9,4,1,8,6","7,5,3,9,4,8,2,1,6","0","3,4,5,6,7,7,6,6,7,8,8,9","8","7",""
"","","","call-function","112","373839","0.0-0.0-1.11-0.11-3.11","auditory","A02F6F","","","","","","","","","",""
"19401","<p>Die Aufgabe ist erledigt! Vielen Dank!</p><p>Die Gesamtzahl Ihrer korrekten Antworten ist <b>7</b>.</p>","0","html-button-response","113","393244","0.0-1.0","auditory","A02F6F","","","","","","","","","",""
