"rt","stimulus","button_pressed","trial_type","trial_index","time_elapsed","internal_node_id","BDS_modality","subject","key_press","designation","span","answer","correct","was_correct","spanHistory","max_span","total_correct","value"
"95055","<p>Willkommen bei der <b>Ziffernspannen-Aufgabe.</b></p><p>Bei jedem Versuch h&ouml;ren Sie eine Ziffernfolge und sollen diese in umgekehrter Reihenfolge wiedergeben.</p><p>Zum Beispiel, falls sie die Zahlen <b style=""color:blue;"">Eins</b>, <b style=""color:blue;"">Zwei</b>, <b style=""color:blue;"">Drei</b>, geh&ouml;rt haben, dann antworten Sie mit <b style=""color:blue;"">3</b>, <b style=""color:blue;"">2</b>, <b style=""color:blue;"">1</b></p><p>Um eine hohe Qualit&auml;t der Daten zu gew&auml;hrleisten, ist es sehr wichtig, dass Sie keine Ged&auml;chtnisst&uuml;tze (z.B. Stift und Papier) verwenden.<br>Bitte bearbeiten Sie die Aufgabe ausschlie&#223;lich im Kopf.</p><p>Es werden insgesamt 12 Durchl&auml;ufe gemacht. Die Teilname dauert etwa 10 Minuten. Am Ende sehen sie Ihre erreichte Punktzahl.</p>","0","html-button-response","0","95055","0.0-0.0-0.0","auditory","A0092D","","","","","","","","","",""
"2121","<p>Test 1 von 12</p>","0","html-button-response","1","97177","0.0-0.0-1.0-0.0-0.0","auditory","A0092D","","","","","","","","","",""
"null","digits/two.wav","","audio-keyboard-response","2","98540","0.0-0.0-1.0-0.0-1.0-0.0","auditory","A0092D","null","","","","","","","","",""
"null","digits/three.wav","","audio-keyboard-response","3","99542","0.0-0.0-1.0-0.0-1.1-0.1","auditory","A0092D","null","","","","","","","","",""
"null","digits/five.wav","","audio-keyboard-response","4","100582","0.0-0.0-1.0-0.0-1.2-0.2","auditory","A0092D","null","","","","","","","","",""
"3723","<div class = numbox><p>Wie lauteten die Zahlen <b>in umgekehrter Reihenfolge</b>?<br> Antwort mit Enter-Taste best&auml;tigen.</p><button id = button_1 class = ""square num-button"" onclick = ""recordClick(this)""><div class = content><div class = numbers>1</div></div></button><button id = button_2 class = ""square num-button"" onclick = ""recordClick(this)""><div class = content><div class = numbers>2</div></div></button><button id = button_3 class = ""square num-button"" onclick = ""recordClick(this)""><div class = content><div class = numbers>3</div></div></button><button id = button_4 class = ""square num-button"" onclick = ""recordClick(this)""><div class = content><div class = numbers>4</div></div></button><button id = button_5 class = ""square num-button"" onclick = ""recordClick(this)""><div class = content><div class = numbers>5</div></div></button><button id = button_6 class = ""square num-button"" onclick = ""recordClick(this)""><div class = content><div class = numbers>6</div></div></button><button id = button_7 class = ""square num-button"" onclick = ""recordClick(this)""><div class = content><div class = numbers>7</div></div></button><button id = button_8 class = ""square num-button"" onclick = ""recordClick(this)""><div class = content><div class = numbers>8</div></div></button><button id = button_9 class = ""square num-button"" onclick = ""recordClick(this)""><div class = content><div class = numbers>9</div></div></button><button class = clear_button id = ""ClearButton"" onclick = ""clearResponse()"">L&ouml;schen</button><p><u><b>Ihre Antwort:</b></u></p><div id=echoed_txt style=""font-size: 30px; color:blue;""><b></b></div></div>","","html-keyboard-response","5","104557","0.0-0.0-1.0-0.0-2.0","auditory","A0092D","13","BDS-RESPONSE","3","5,3,2","5,3,2","1","3,4,5,6,7,7,6,6,5,6,6,7","0","0",""
"","","","call-function","6","104558","0.0-0.0-1.0-0.0-3.0","auditory","A0092D","","","","","","","","","",""
"809","<p>Test 2 von 12</p>","0","html-button-response","7","105367","0.0-0.0-1.1-0.1-0.1","auditory","A0092D","","","","","","","","","",""
"null","digits/two.wav","","audio-keyboard-response","8","106663","0.0-0.0-1.1-0.1-1.3-0.3","auditory","A0092D","null","","","","","","","","",""
"null","digits/three.wav","","audio-keyboard-response","9","107666","0.0-0.0-1.1-0.1-1.4-0.4","auditory","A0092D","null","","","","","","","","",""
"null","digits/seven.wav","","audio-keyboard-response","10","108738","0.0-0.0-1.1-0.1-1.5-0.5","auditory","A0092D","null","","","","","","","","",""
"null","digits/six.wav","","audio-keyboard-response","11","109786","0.0-0.0-1.1-0.1-1.6-0.6","auditory","A0092D","null","","","","","","","","",""
"4894","<div class = numbox><p>Wie lauteten die Zahlen <b>in umgekehrter Reihenfolge</b>?<br> Antwort mit Enter-Taste best&auml;tigen.</p><button id = button_1 class = ""square num-button"" onclick = ""recordClick(this)""><div class = content><div class = numbers>1</div></div></button><button id = button_2 class = ""square num-button"" onclick = ""recordClick(this)""><div class = content><div class = numbers>2</div></div></button><button id = button_3 class = ""square num-button"" onclick = ""recordClick(this)""><div class = content><div class = numbers>3</div></div></button><button id = button_4 class = ""square num-button"" onclick = ""recordClick(this)""><div class = content><div class = numbers>4</div></div></button><button id = button_5 class = ""square num-button"" onclick = ""recordClick(this)""><div class = content><div class = numbers>5</div></div></button><button id = button_6 class = ""square num-button"" onclick = ""recordClick(this)""><div class = content><div class = numbers>6</div></div></button><button id = button_7 class = ""square num-button"" onclick = ""recordClick(this)""><div class = content><div class = numbers>7</div></div></button><button id = button_8 class = ""square num-button"" onclick = ""recordClick(this)""><div class = content><div class = numbers>8</div></div></button><button id = button_9 class = ""square num-button"" onclick = ""recordClick(this)""><div class = content><div class = numbers>9</div></div></button><button class = clear_button id = ""ClearButton"" onclick = ""clearResponse()"">L&ouml;schen</button><p><u><b>Ihre Antwort:</b></u></p><div id=echoed_txt style=""font-size: 30px; color:blue;""><b></b></div></div>","","html-keyboard-response","12","114930","0.0-0.0-1.1-0.1-2.1","auditory","A0092D","13","BDS-RESPONSE","4","6,7,3,2","6,7,3,2","1","3,4,5,6,7,7,6,6,5,6,6,7","3","1",""
"","","","call-function","13","114931","0.0-0.0-1.1-0.1-3.1","auditory","A0092D","","","","","","","","","",""
"1125","<p>Test 3 von 12</p>","0","html-button-response","14","116057","0.0-0.0-1.2-0.2-0.2","auditory","A0092D","","","","","","","","","",""
"null","digits/four.wav","","audio-keyboard-response","15","117321","0.0-0.0-1.2-0.2-1.7-0.7","auditory","A0092D","null","","","","","","","","",""
"null","digits/nine.wav","","audio-keyboard-response","16","118252","0.0-0.0-1.2-0.2-1.8-0.8","auditory","A0092D","null","","","","","","","","",""
"null","digits/six.wav","","audio-keyboard-response","17","119300","0.0-0.0-1.2-0.2-1.9-0.9","auditory","A0092D","null","","","","","","","","",""
"null","digits/two.wav","","audio-keyboard-response","18","120348","0.0-0.0-1.2-0.2-1.10-0.10","auditory","A0092D","null","","","","","","","","",""
"null","digits/eight.wav","","audio-keyboard-response","19","121228","0.0-0.0-1.2-0.2-1.11-0.11","auditory","A0092D","null","","","","","","","","",""
"8849","<div class = numbox><p>Wie lauteten die Zahlen <b>in umgekehrter Reihenfolge</b>?<br> Antwort mit Enter-Taste best&auml;tigen.</p><button id = button_1 class = ""square num-button"" onclick = ""recordClick(this)""><div class = content><div class = numbers>1</div></div></button><button id = button_2 class = ""square num-button"" onclick = ""recordClick(this)""><div class = content><div class = numbers>2</div></div></button><button id = button_3 class = ""square num-button"" onclick = ""recordClick(this)""><div class = content><div class = numbers>3</div></div></button><button id = button_4 class = ""square num-button"" onclick = ""recordClick(this)""><div class = content><div class = numbers>4</div></div></button><button id = button_5 class = ""square num-button"" onclick = ""recordClick(this)""><div class = content><div class = numbers>5</div></div></button><button id = button_6 class = ""square num-button"" onclick = ""recordClick(this)""><div class = content><div class = numbers>6</div></div></button><button id = button_7 class = ""square num-button"" onclick = ""recordClick(this)""><div class = content><div class = numbers>7</div></div></button><button id = button_8 class = ""square num-button"" onclick = ""recordClick(this)""><div class = content><div class = numbers>8</div></div></button><button id = button_9 class = ""square num-button"" onclick = ""recordClick(this)""><div class = content><div class = numbers>9</div></div></button><button class = clear_button id = ""ClearButton"" onclick = ""clearResponse()"">L&ouml;schen</button><p><u><b>Ihre Antwort:</b></u></p><div id=echoed_txt style=""font-size: 30px; color:blue;""><b></b></div></div>","","html-keyboard-response","20","130328","0.0-0.0-1.2-0.2-2.2","auditory","A0092D","13","BDS-RESPONSE","5","8,2,6,9,4","8,2,6,9,4","1","3,4,5,6,7,7,6,6,5,6,6,7","4","2",""
"","","","call-function","21","130328","0.0-0.0-1.2-0.2-3.2","auditory","A0092D","","","","","","","","","",""
"1747","<p>Test 4 von 12</p>","0","html-button-response","22","132075","0.0-0.0-1.3-0.3-0.3","auditory","A0092D","","","","","","","","","",""
"null","digits/seven.wav","","audio-keyboard-response","23","133398","0.0-0.0-1.3-0.3-1.12-0.12","auditory","A0092D","null","","","","","","","","",""
"null","digits/six.wav","","audio-keyboard-response","24","134446","0.0-0.0-1.3-0.3-1.13-0.13","auditory","A0092D","null","","","","","","","","",""
"null","digits/eight.wav","","audio-keyboard-response","25","135326","0.0-0.0-1.3-0.3-1.14-0.14","auditory","A0092D","null","","","","","","","","",""
"null","digits/nine.wav","","audio-keyboard-response","26","136257","0.0-0.0-1.3-0.3-1.15-0.15","auditory","A0092D","null","","","","","","","","",""
"null","digits/five.wav","","audio-keyboard-response","27","137296","0.0-0.0-1.3-0.3-1.16-0.16","auditory","A0092D","null","","","","","","","","",""
"null","digits/one.wav","","audio-keyboard-response","28","138419","0.0-0.0-1.3-0.3-1.17-0.17","auditory","A0092D","null","","","","","","","","",""
"13411","<div class = numbox><p>Wie lauteten die Zahlen <b>in umgekehrter Reihenfolge</b>?<br> Antwort mit Enter-Taste best&auml;tigen.</p><button id = button_1 class = ""square num-button"" onclick = ""recordClick(this)""><div class = content><div class = numbers>1</div></div></button><button id = button_2 class = ""square num-button"" onclick = ""recordClick(this)""><div class = content><div class = numbers>2</div></div></button><button id = button_3 class = ""square num-button"" onclick = ""recordClick(this)""><div class = content><div class = numbers>3</div></div></button><button id = button_4 class = ""square num-button"" onclick = ""recordClick(this)""><div class = content><div class = numbers>4</div></div></button><button id = button_5 class = ""square num-button"" onclick = ""recordClick(this)""><div class = content><div class = numbers>5</div></div></button><button id = button_6 class = ""square num-button"" onclick = ""recordClick(this)""><div class = content><div class = numbers>6</div></div></button><button id = button_7 class = ""square num-button"" onclick = ""recordClick(this)""><div class = content><div class = numbers>7</div></div></button><button id = button_8 class = ""square num-button"" onclick = ""recordClick(this)""><div class = content><div class = numbers>8</div></div></button><button id = button_9 class = ""square num-button"" onclick = ""recordClick(this)""><div class = content><div class = numbers>9</div></div></button><button class = clear_button id = ""ClearButton"" onclick = ""clearResponse()"">L&ouml;schen</button><p><u><b>Ihre Antwort:</b></u></p><div id=echoed_txt style=""font-size: 30px; color:blue;""><b></b></div></div>","","html-keyboard-response","29","152081","0.0-0.0-1.3-0.3-2.3","auditory","A0092D","13","BDS-RESPONSE","6","1,5,9,8,6,7","1,5,9,8,6,7","1","3,4,5,6,7,7,6,6,5,6,6,7","5","3",""
"","","","call-function","30","152082","0.0-0.0-1.3-0.3-3.3","auditory","A0092D","","","","","","","","","",""
"9753","<p>Test 5 von 12</p>","0","html-button-response","31","161835","0.0-0.0-1.4-0.4-0.4","auditory","A0092D","","","","","","","","","",""
"null","digits/eight.wav","","audio-keyboard-response","32","162966","0.0-0.0-1.4-0.4-1.18-0.18","auditory","A0092D","null","","","","","","","","",""
"null","digits/three.wav","","audio-keyboard-response","33","163969","0.0-0.0-1.4-0.4-1.19-0.19","auditory","A0092D","null","","","","","","","","",""
"null","digits/one.wav","","audio-keyboard-response","34","165091","0.0-0.0-1.4-0.4-1.20-0.20","auditory","A0092D","null","","","","","","","","",""
"null","digits/nine.wav","","audio-keyboard-response","35","166022","0.0-0.0-1.4-0.4-1.21-0.21","auditory","A0092D","null","","","","","","","","",""
"null","digits/six.wav","","audio-keyboard-response","36","167070","0.0-0.0-1.4-0.4-1.22-0.22","auditory","A0092D","null","","","","","","","","",""
"null","digits/five.wav","","audio-keyboard-response","37","168110","0.0-0.0-1.4-0.4-1.23-0.23","auditory","A0092D","null","","","","","","","","",""
"null","digits/four.wav","","audio-keyboard-response","38","169123","0.0-0.0-1.4-0.4-1.24-0.24","auditory","A0092D","null","","","","","","","","",""
"24232","<div class = numbox><p>Wie lauteten die Zahlen <b>in umgekehrter Reihenfolge</b>?<br> Antwort mit Enter-Taste best&auml;tigen.</p><button id = button_1 class = ""square num-button"" onclick = ""recordClick(this)""><div class = content><div class = numbers>1</div></div></button><button id = button_2 class = ""square num-button"" onclick = ""recordClick(this)""><div class = content><div class = numbers>2</div></div></button><button id = button_3 class = ""square num-button"" onclick = ""recordClick(this)""><div class = content><div class = numbers>3</div></div></button><button id = button_4 class = ""square num-button"" onclick = ""recordClick(this)""><div class = content><div class = numbers>4</div></div></button><button id = button_5 class = ""square num-button"" onclick = ""recordClick(this)""><div class = content><div class = numbers>5</div></div></button><button id = button_6 class = ""square num-button"" onclick = ""recordClick(this)""><div class = content><div class = numbers>6</div></div></button><button id = button_7 class = ""square num-button"" onclick = ""recordClick(this)""><div class = content><div class = numbers>7</div></div></button><button id = button_8 class = ""square num-button"" onclick = ""recordClick(this)""><div class = content><div class = numbers>8</div></div></button><button id = button_9 class = ""square num-button"" onclick = ""recordClick(this)""><div class = content><div class = numbers>9</div></div></button><button class = clear_button id = ""ClearButton"" onclick = ""clearResponse()"">L&ouml;schen</button><p><u><b>Ihre Antwort:</b></u></p><div id=echoed_txt style=""font-size: 30px; color:blue;""><b></b></div></div>","","html-keyboard-response","39","193606","0.0-0.0-1.4-0.4-2.4","auditory","A0092D","13","BDS-RESPONSE","7","4,5,9,6,1,3,8","4,5,6,9,1,3,8","0","3,4,5,6,7,7,6,6,5,6,6,7","6","4",""
"","","","call-function","40","193606","0.0-0.0-1.4-0.4-3.4","auditory","A0092D","","","","","","","","","",""
"2559","<p>Test 6 von 12</p>","0","html-button-response","41","196166","0.0-0.0-1.5-0.5-0.5","auditory","A0092D","","","","","","","","","",""
"null","digits/one.wav","","audio-keyboard-response","42","197537","0.0-0.0-1.5-0.5-1.25-0.25","auditory","A0092D","null","","","","","","","","",""
"null","digits/four.wav","","audio-keyboard-response","43","198550","0.0-0.0-1.5-0.5-1.26-0.26","auditory","A0092D","null","","","","","","","","",""
"null","digits/six.wav","","audio-keyboard-response","44","199598","0.0-0.0-1.5-0.5-1.27-0.27","auditory","A0092D","null","","","","","","","","",""
"null","digits/two.wav","","audio-keyboard-response","45","200646","0.0-0.0-1.5-0.5-1.28-0.28","auditory","A0092D","null","","","","","","","","",""
"null","digits/seven.wav","","audio-keyboard-response","46","201718","0.0-0.0-1.5-0.5-1.29-0.29","auditory","A0092D","null","","","","","","","","",""
"null","digits/eight.wav","","audio-keyboard-response","47","202599","0.0-0.0-1.5-0.5-1.30-0.30","auditory","A0092D","null","","","","","","","","",""
"null","digits/nine.wav","","audio-keyboard-response","48","203529","0.0-0.0-1.5-0.5-1.31-0.31","auditory","A0092D","null","","","","","","","","",""
"24088","<div class = numbox><p>Wie lauteten die Zahlen <b>in umgekehrter Reihenfolge</b>?<br> Antwort mit Enter-Taste best&auml;tigen.</p><button id = button_1 class = ""square num-button"" onclick = ""recordClick(this)""><div class = content><div class = numbers>1</div></div></button><button id = button_2 class = ""square num-button"" onclick = ""recordClick(this)""><div class = content><div class = numbers>2</div></div></button><button id = button_3 class = ""square num-button"" onclick = ""recordClick(this)""><div class = content><div class = numbers>3</div></div></button><button id = button_4 class = ""square num-button"" onclick = ""recordClick(this)""><div class = content><div class = numbers>4</div></div></button><button id = button_5 class = ""square num-button"" onclick = ""recordClick(this)""><div class = content><div class = numbers>5</div></div></button><button id = button_6 class = ""square num-button"" onclick = ""recordClick(this)""><div class = content><div class = numbers>6</div></div></button><button id = button_7 class = ""square num-button"" onclick = ""recordClick(this)""><div class = content><div class = numbers>7</div></div></button><button id = button_8 class = ""square num-button"" onclick = ""recordClick(this)""><div class = content><div class = numbers>8</div></div></button><button id = button_9 class = ""square num-button"" onclick = ""recordClick(this)""><div class = content><div class = numbers>9</div></div></button><button class = clear_button id = ""ClearButton"" onclick = ""clearResponse()"">L&ouml;schen</button><p><u><b>Ihre Antwort:</b></u></p><div id=echoed_txt style=""font-size: 30px; color:blue;""><b></b></div></div>","","html-keyboard-response","49","227869","0.0-0.0-1.5-0.5-2.5","auditory","A0092D","13","BDS-RESPONSE","7","9,8,7,6,1,3","9,8,7,2,6,4,1","0","3,4,5,6,7,7,6,6,5,6,6,7","6","4",""
"","","","call-function","50","227869","0.0-0.0-1.5-0.5-3.5","auditory","A0092D","","","","","","","","","",""
"3484","<p>Test 7 von 12</p>","0","html-button-response","51","231354","0.0-0.0-1.6-0.6-0.6","auditory","A0092D","","","","","","","","","",""
"null","digits/seven.wav","","audio-keyboard-response","52","232676","0.0-0.0-1.6-0.6-1.32-0.32","auditory","A0092D","null","","","","","","","","",""
"null","digits/two.wav","","audio-keyboard-response","53","233724","0.0-0.0-1.6-0.6-1.33-0.33","auditory","A0092D","null","","","","","","","","",""
"null","digits/one.wav","","audio-keyboard-response","54","234847","0.0-0.0-1.6-0.6-1.34-0.34","auditory","A0092D","null","","","","","","","","",""
"null","digits/six.wav","","audio-keyboard-response","55","235895","0.0-0.0-1.6-0.6-1.35-0.35","auditory","A0092D","null","","","","","","","","",""
"null","digits/five.wav","","audio-keyboard-response","56","236935","0.0-0.0-1.6-0.6-1.36-0.36","auditory","A0092D","null","","","","","","","","",""
"null","digits/eight.wav","","audio-keyboard-response","57","237815","0.0-0.0-1.6-0.6-1.37-0.37","auditory","A0092D","null","","","","","","","","",""
"17196","<div class = numbox><p>Wie lauteten die Zahlen <b>in umgekehrter Reihenfolge</b>?<br> Antwort mit Enter-Taste best&auml;tigen.</p><button id = button_1 class = ""square num-button"" onclick = ""recordClick(this)""><div class = content><div class = numbers>1</div></div></button><button id = button_2 class = ""square num-button"" onclick = ""recordClick(this)""><div class = content><div class = numbers>2</div></div></button><button id = button_3 class = ""square num-button"" onclick = ""recordClick(this)""><div class = content><div class = numbers>3</div></div></button><button id = button_4 class = ""square num-button"" onclick = ""recordClick(this)""><div class = content><div class = numbers>4</div></div></button><button id = button_5 class = ""square num-button"" onclick = ""recordClick(this)""><div class = content><div class = numbers>5</div></div></button><button id = button_6 class = ""square num-button"" onclick = ""recordClick(this)""><div class = content><div class = numbers>6</div></div></button><button id = button_7 class = ""square num-button"" onclick = ""recordClick(this)""><div class = content><div class = numbers>7</div></div></button><button id = button_8 class = ""square num-button"" onclick = ""recordClick(this)""><div class = content><div class = numbers>8</div></div></button><button id = button_9 class = ""square num-button"" onclick = ""recordClick(this)""><div class = content><div class = numbers>9</div></div></button><button class = clear_button id = ""ClearButton"" onclick = ""clearResponse()"">L&ouml;schen</button><p><u><b>Ihre Antwort:</b></u></p><div id=echoed_txt style=""font-size: 30px; color:blue;""><b></b></div></div>","","html-keyboard-response","58","255262","0.0-0.0-1.6-0.6-2.6","auditory","A0092D","13","BDS-RESPONSE","6","8,5,2,6,1,7","8,5,6,1,2,7","0","3,4,5,6,7,7,6,6,5,6,6,7","6","4",""
"","","","call-function","59","255263","0.0-0.0-1.6-0.6-3.6","auditory","A0092D","","","","","","","","","",""
"1557","<p>Test 8 von 12</p>","0","html-button-response","60","256820","0.0-0.0-1.7-0.7-0.7","auditory","A0092D","","","","","","","","","",""
"null","digits/one.wav","","audio-keyboard-response","61","258194","0.0-0.0-1.7-0.7-1.38-0.38","auditory","A0092D","null","","","","","","","","",""
"null","digits/eight.wav","","audio-keyboard-response","62","259074","0.0-0.0-1.7-0.7-1.39-0.39","auditory","A0092D","null","","","","","","","","",""
"null","digits/four.wav","","audio-keyboard-response","63","260087","0.0-0.0-1.7-0.7-1.40-0.40","auditory","A0092D","null","","","","","","","","",""
"null","digits/five.wav","","audio-keyboard-response","64","261127","0.0-0.0-1.7-0.7-1.41-0.41","auditory","A0092D","null","","","","","","","","",""
"null","digits/seven.wav","","audio-keyboard-response","65","262199","0.0-0.0-1.7-0.7-1.42-0.42","auditory","A0092D","null","","","","","","","","",""
"null","digits/nine.wav","","audio-keyboard-response","66","263130","0.0-0.0-1.7-0.7-1.43-0.43","auditory","A0092D","null","","","","","","","","",""
"17603","<div class = numbox><p>Wie lauteten die Zahlen <b>in umgekehrter Reihenfolge</b>?<br> Antwort mit Enter-Taste best&auml;tigen.</p><button id = button_1 class = ""square num-button"" onclick = ""recordClick(this)""><div class = content><div class = numbers>1</div></div></button><button id = button_2 class = ""square num-button"" onclick = ""recordClick(this)""><div class = content><div class = numbers>2</div></div></button><button id = button_3 class = ""square num-button"" onclick = ""recordClick(this)""><div class = content><div class = numbers>3</div></div></button><button id = button_4 class = ""square num-button"" onclick = ""recordClick(this)""><div class = content><div class = numbers>4</div></div></button><button id = button_5 class = ""square num-button"" onclick = ""recordClick(this)""><div class = content><div class = numbers>5</div></div></button><button id = button_6 class = ""square num-button"" onclick = ""recordClick(this)""><div class = content><div class = numbers>6</div></div></button><button id = button_7 class = ""square num-button"" onclick = ""recordClick(this)""><div class = content><div class = numbers>7</div></div></button><button id = button_8 class = ""square num-button"" onclick = ""recordClick(this)""><div class = content><div class = numbers>8</div></div></button><button id = button_9 class = ""square num-button"" onclick = ""recordClick(this)""><div class = content><div class = numbers>9</div></div></button><button class = clear_button id = ""ClearButton"" onclick = ""clearResponse()"">L&ouml;schen</button><p><u><b>Ihre Antwort:</b></u></p><div id=echoed_txt style=""font-size: 30px; color:blue;""><b></b></div></div>","","html-keyboard-response","67","280986","0.0-0.0-1.7-0.7-2.7","auditory","A0092D","13","BDS-RESPONSE","6","9,7,5,8,1","9,7,5,4,8,1","0","3,4,5,6,7,7,6,6,5,6,6,7","6","4",""
"","","","call-function","68","280986","0.0-0.0-1.7-0.7-3.7","auditory","A0092D","","","","","","","","","",""
"4288","<p>Test 9 von 12</p>","0","html-button-response","69","285274","0.0-0.0-1.8-0.8-0.8","auditory","A0092D","","","","","","","","","",""
"null","digits/four.wav","","audio-keyboard-response","70","286536","0.0-0.0-1.8-0.8-1.44-0.44","auditory","A0092D","null","","","","","","","","",""
"null","digits/seven.wav","","audio-keyboard-response","71","287608","0.0-0.0-1.8-0.8-1.45-0.45","auditory","A0092D","null","","","","","","","","",""
"null","digits/two.wav","","audio-keyboard-response","72","288656","0.0-0.0-1.8-0.8-1.46-0.46","auditory","A0092D","null","","","","","","","","",""
"null","digits/eight.wav","","audio-keyboard-response","73","289536","0.0-0.0-1.8-0.8-1.47-0.47","auditory","A0092D","null","","","","","","","","",""
"null","digits/six.wav","","audio-keyboard-response","74","290584","0.0-0.0-1.8-0.8-1.48-0.48","auditory","A0092D","null","","","","","","","","",""
"11675","<div class = numbox><p>Wie lauteten die Zahlen <b>in umgekehrter Reihenfolge</b>?<br> Antwort mit Enter-Taste best&auml;tigen.</p><button id = button_1 class = ""square num-button"" onclick = ""recordClick(this)""><div class = content><div class = numbers>1</div></div></button><button id = button_2 class = ""square num-button"" onclick = ""recordClick(this)""><div class = content><div class = numbers>2</div></div></button><button id = button_3 class = ""square num-button"" onclick = ""recordClick(this)""><div class = content><div class = numbers>3</div></div></button><button id = button_4 class = ""square num-button"" onclick = ""recordClick(this)""><div class = content><div class = numbers>4</div></div></button><button id = button_5 class = ""square num-button"" onclick = ""recordClick(this)""><div class = content><div class = numbers>5</div></div></button><button id = button_6 class = ""square num-button"" onclick = ""recordClick(this)""><div class = content><div class = numbers>6</div></div></button><button id = button_7 class = ""square num-button"" onclick = ""recordClick(this)""><div class = content><div class = numbers>7</div></div></button><button id = button_8 class = ""square num-button"" onclick = ""recordClick(this)""><div class = content><div class = numbers>8</div></div></button><button id = button_9 class = ""square num-button"" onclick = ""recordClick(this)""><div class = content><div class = numbers>9</div></div></button><button class = clear_button id = ""ClearButton"" onclick = ""clearResponse()"">L&ouml;schen</button><p><u><b>Ihre Antwort:</b></u></p><div id=echoed_txt style=""font-size: 30px; color:blue;""><b></b></div></div>","","html-keyboard-response","75","302511","0.0-0.0-1.8-0.8-2.8","auditory","A0092D","13","BDS-RESPONSE","5","6,8,2,7,4","6,8,2,7,4","1","3,4,5,6,7,7,6,6,5,6,6,7","6","4",""
"","","","call-function","76","302511","0.0-0.0-1.8-0.8-3.8","auditory","A0092D","","","","","","","","","",""
"1576","<p>Test 10 von 12</p>","0","html-button-response","77","304087","0.0-0.0-1.9-0.9-0.9","auditory","A0092D","","","","","","","","","",""
"null","digits/five.wav","","audio-keyboard-response","78","305376","0.0-0.0-1.9-0.9-1.49-0.49","auditory","A0092D","null","","","","","","","","",""
"null","digits/two.wav","","audio-keyboard-response","79","306424","0.0-0.0-1.9-0.9-1.50-0.50","auditory","A0092D","null","","","","","","","","",""
"null","digits/one.wav","","audio-keyboard-response","80","307547","0.0-0.0-1.9-0.9-1.51-0.51","auditory","A0092D","null","","","","","","","","",""
"null","digits/nine.wav","","audio-keyboard-response","81","308477","0.0-0.0-1.9-0.9-1.52-0.52","auditory","A0092D","null","","","","","","","","",""
"null","digits/three.wav","","audio-keyboard-response","82","309480","0.0-0.0-1.9-0.9-1.53-0.53","auditory","A0092D","null","","","","","","","","",""
"null","digits/four.wav","","audio-keyboard-response","83","310494","0.0-0.0-1.9-0.9-1.54-0.54","auditory","A0092D","null","","","","","","","","",""
"15339","<div class = numbox><p>Wie lauteten die Zahlen <b>in umgekehrter Reihenfolge</b>?<br> Antwort mit Enter-Taste best&auml;tigen.</p><button id = button_1 class = ""square num-button"" onclick = ""recordClick(this)""><div class = content><div class = numbers>1</div></div></button><button id = button_2 class = ""square num-button"" onclick = ""recordClick(this)""><div class = content><div class = numbers>2</div></div></button><button id = button_3 class = ""square num-button"" onclick = ""recordClick(this)""><div class = content><div class = numbers>3</div></div></button><button id = button_4 class = ""square num-button"" onclick = ""recordClick(this)""><div class = content><div class = numbers>4</div></div></button><button id = button_5 class = ""square num-button"" onclick = ""recordClick(this)""><div class = content><div class = numbers>5</div></div></button><button id = button_6 class = ""square num-button"" onclick = ""recordClick(this)""><div class = content><div class = numbers>6</div></div></button><button id = button_7 class = ""square num-button"" onclick = ""recordClick(this)""><div class = content><div class = numbers>7</div></div></button><button id = button_8 class = ""square num-button"" onclick = ""recordClick(this)""><div class = content><div class = numbers>8</div></div></button><button id = button_9 class = ""square num-button"" onclick = ""recordClick(this)""><div class = content><div class = numbers>9</div></div></button><button class = clear_button id = ""ClearButton"" onclick = ""clearResponse()"">L&ouml;schen</button><p><u><b>Ihre Antwort:</b></u></p><div id=echoed_txt style=""font-size: 30px; color:blue;""><b></b></div></div>","","html-keyboard-response","84","326084","0.0-0.0-1.9-0.9-2.9","auditory","A0092D","13","BDS-RESPONSE","6","3,4,3,2,5","4,3,9,1,2,5","0","3,4,5,6,7,7,6,6,5,6,6,7","6","5",""
"","","","call-function","85","326084","0.0-0.0-1.9-0.9-3.9","auditory","A0092D","","","","","","","","","",""
"2437","<p>Test 11 von 12</p>","0","html-button-response","86","328521","0.0-0.0-1.10-0.10-0.10","auditory","A0092D","","","","","","","","","",""
"null","digits/eight.wav","","audio-keyboard-response","87","329651","0.0-0.0-1.10-0.10-1.55-0.55","auditory","A0092D","null","","","","","","","","",""
"null","digits/seven.wav","","audio-keyboard-response","88","330723","0.0-0.0-1.10-0.10-1.56-0.56","auditory","A0092D","null","","","","","","","","",""
"null","digits/three.wav","","audio-keyboard-response","89","331726","0.0-0.0-1.10-0.10-1.57-0.57","auditory","A0092D","null","","","","","","","","",""
"null","digits/one.wav","","audio-keyboard-response","90","332849","0.0-0.0-1.10-0.10-1.58-0.58","auditory","A0092D","null","","","","","","","","",""
"null","digits/four.wav","","audio-keyboard-response","91","333862","0.0-0.0-1.10-0.10-1.59-0.59","auditory","A0092D","null","","","","","","","","",""
"null","digits/nine.wav","","audio-keyboard-response","92","334793","0.0-0.0-1.10-0.10-1.60-0.60","auditory","A0092D","null","","","","","","","","",""
"10802","<div class = numbox><p>Wie lauteten die Zahlen <b>in umgekehrter Reihenfolge</b>?<br> Antwort mit Enter-Taste best&auml;tigen.</p><button id = button_1 class = ""square num-button"" onclick = ""recordClick(this)""><div class = content><div class = numbers>1</div></div></button><button id = button_2 class = ""square num-button"" onclick = ""recordClick(this)""><div class = content><div class = numbers>2</div></div></button><button id = button_3 class = ""square num-button"" onclick = ""recordClick(this)""><div class = content><div class = numbers>3</div></div></button><button id = button_4 class = ""square num-button"" onclick = ""recordClick(this)""><div class = content><div class = numbers>4</div></div></button><button id = button_5 class = ""square num-button"" onclick = ""recordClick(this)""><div class = content><div class = numbers>5</div></div></button><button id = button_6 class = ""square num-button"" onclick = ""recordClick(this)""><div class = content><div class = numbers>6</div></div></button><button id = button_7 class = ""square num-button"" onclick = ""recordClick(this)""><div class = content><div class = numbers>7</div></div></button><button id = button_8 class = ""square num-button"" onclick = ""recordClick(this)""><div class = content><div class = numbers>8</div></div></button><button id = button_9 class = ""square num-button"" onclick = ""recordClick(this)""><div class = content><div class = numbers>9</div></div></button><button class = clear_button id = ""ClearButton"" onclick = ""clearResponse()"">L&ouml;schen</button><p><u><b>Ihre Antwort:</b></u></p><div id=echoed_txt style=""font-size: 30px; color:blue;""><b></b></div></div>","","html-keyboard-response","93","345847","0.0-0.0-1.10-0.10-2.10","auditory","A0092D","13","BDS-RESPONSE","6","9,4,1,3,7,8","9,4,1,3,7,8","1","3,4,5,6,7,7,6,6,5,6,6,7","6","5",""
"","","","call-function","94","345847","0.0-0.0-1.10-0.10-3.10","auditory","A0092D","","","","","","","","","",""
"1123","<p>Test 12 von 12</p>","0","html-button-response","95","346971","0.0-0.0-1.11-0.11-0.11","auditory","A0092D","","","","","","","","","",""
"null","digits/four.wav","","audio-keyboard-response","96","348233","0.0-0.0-1.11-0.11-1.61-0.61","auditory","A0092D","null","","","","","","","","",""
"null","digits/one.wav","","audio-keyboard-response","97","349356","0.0-0.0-1.11-0.11-1.62-0.62","auditory","A0092D","null","","","","","","","","",""
"null","digits/nine.wav","","audio-keyboard-response","98","350286","0.0-0.0-1.11-0.11-1.63-0.63","auditory","A0092D","null","","","","","","","","",""
"null","digits/five.wav","","audio-keyboard-response","99","351326","0.0-0.0-1.11-0.11-1.64-0.64","auditory","A0092D","null","","","","","","","","",""
"null","digits/eight.wav","","audio-keyboard-response","100","352206","0.0-0.0-1.11-0.11-1.65-0.65","auditory","A0092D","null","","","","","","","","",""
"null","digits/six.wav","","audio-keyboard-response","101","353254","0.0-0.0-1.11-0.11-1.66-0.66","auditory","A0092D","null","","","","","","","","",""
"null","digits/two.wav","","audio-keyboard-response","102","354302","0.0-0.0-1.11-0.11-1.67-0.67","auditory","A0092D","null","","","","","","","","",""
"14986","<div class = numbox><p>Wie lauteten die Zahlen <b>in umgekehrter Reihenfolge</b>?<br> Antwort mit Enter-Taste best&auml;tigen.</p><button id = button_1 class = ""square num-button"" onclick = ""recordClick(this)""><div class = content><div class = numbers>1</div></div></button><button id = button_2 class = ""square num-button"" onclick = ""recordClick(this)""><div class = content><div class = numbers>2</div></div></button><button id = button_3 class = ""square num-button"" onclick = ""recordClick(this)""><div class = content><div class = numbers>3</div></div></button><button id = button_4 class = ""square num-button"" onclick = ""recordClick(this)""><div class = content><div class = numbers>4</div></div></button><button id = button_5 class = ""square num-button"" onclick = ""recordClick(this)""><div class = content><div class = numbers>5</div></div></button><button id = button_6 class = ""square num-button"" onclick = ""recordClick(this)""><div class = content><div class = numbers>6</div></div></button><button id = button_7 class = ""square num-button"" onclick = ""recordClick(this)""><div class = content><div class = numbers>7</div></div></button><button id = button_8 class = ""square num-button"" onclick = ""recordClick(this)""><div class = content><div class = numbers>8</div></div></button><button id = button_9 class = ""square num-button"" onclick = ""recordClick(this)""><div class = content><div class = numbers>9</div></div></button><button class = clear_button id = ""ClearButton"" onclick = ""clearResponse()"">L&ouml;schen</button><p><u><b>Ihre Antwort:</b></u></p><div id=echoed_txt style=""font-size: 30px; color:blue;""><b></b></div></div>","","html-keyboard-response","103","369541","0.0-0.0-1.11-0.11-2.11","auditory","A0092D","13","BDS-RESPONSE","7","2,6,9,8,7,4","2,6,8,5,9,1,4","0","3,4,5,6,7,7,6,6,5,6,6,7","6","6",""
"","","","call-function","104","369541","0.0-0.0-1.11-0.11-3.11","auditory","A0092D","","","","","","","","","",""
