"rt","stimulus","button_pressed","trial_type","trial_index","time_elapsed","internal_node_id","BDS_modality","subject","key_press","designation","span","answer","correct","was_correct","spanHistory","max_span","total_correct","value"
"2060","<p>Willkommen bei der <b>Ziffernspannen-Aufgabe.</b></p><p>Bei jedem Versuch h&ouml;ren Sie eine Ziffernfolge und sollen diese in umgekehrter Reihenfolge wiedergeben.</p><p>Zum Beispiel, falls sie die Zahlen <b style=""color:blue;"">Eins</b>, <b style=""color:blue;"">Zwei</b>, <b style=""color:blue;"">Drei</b>, geh&ouml;rt haben, dann antworten Sie mit <b style=""color:blue;"">3</b>, <b style=""color:blue;"">2</b>, <b style=""color:blue;"">1</b></p><p>Um eine hohe Qualit&auml;t der Daten zu gew&auml;hrleisten, ist es sehr wichtig, dass Sie keine Ged&auml;chtnisst&uuml;tze (z.B. Stift und Papier) verwenden.<br>Bitte bearbeiten Sie die Aufgabe ausschlie&#223;lich im Kopf.</p><p>Es werden insgesamt 12 Durchl&auml;ufe gemacht. Die Teilname dauert etwa 10 Minuten. Am Ende sehen sie Ihre erreichte Punktzahl.</p>","0","html-button-response","0","2060","0.0-0.0-0.0","auditory","A02BED","","","","","","","","","",""
"1079","<p>Test 1 von 12</p>","0","html-button-response","1","3140","0.0-0.0-1.0-0.0-0.0","auditory","A02BED","","","","","","","","","",""
"null","digits/one.wav","","audio-keyboard-response","2","4794","0.0-0.0-1.0-0.0-1.0-0.0","auditory","A02BED","null","","","","","","","","",""
"null","digits/nine.wav","","audio-keyboard-response","3","5723","0.0-0.0-1.0-0.0-1.1-0.1","auditory","A02BED","null","","","","","","","","",""
"null","digits/six.wav","","audio-keyboard-response","4","6783","0.0-0.0-1.0-0.0-1.2-0.2","auditory","A02BED","null","","","","","","","","",""
"11596","<div class = numbox><p>Wie lauteten die Zahlen <b>in umgekehrter Reihenfolge</b>?<br> Antwort mit Enter-Taste best&auml;tigen.</p><button id = button_1 class = ""square num-button"" onclick = ""recordClick(this)""><div class = content><div class = numbers>1</div></div></button><button id = button_2 class = ""square num-button"" onclick = ""recordClick(this)""><div class = content><div class = numbers>2</div></div></button><button id = button_3 class = ""square num-button"" onclick = ""recordClick(this)""><div class = content><div class = numbers>3</div></div></button><button id = button_4 class = ""square num-button"" onclick = ""recordClick(this)""><div class = content><div class = numbers>4</div></div></button><button id = button_5 class = ""square num-button"" onclick = ""recordClick(this)""><div class = content><div class = numbers>5</div></div></button><button id = button_6 class = ""square num-button"" onclick = ""recordClick(this)""><div class = content><div class = numbers>6</div></div></button><button id = button_7 class = ""square num-button"" onclick = ""recordClick(this)""><div class = content><div class = numbers>7</div></div></button><button id = button_8 class = ""square num-button"" onclick = ""recordClick(this)""><div class = content><div class = numbers>8</div></div></button><button id = button_9 class = ""square num-button"" onclick = ""recordClick(this)""><div class = content><div class = numbers>9</div></div></button><button class = clear_button id = ""ClearButton"" onclick = ""clearResponse()"">L&ouml;schen</button><p><u><b>Ihre Antwort:</b></u></p><div id=echoed_txt style=""font-size: 30px; color:blue;""><b></b></div></div>","","html-keyboard-response","5","18640","0.0-0.0-1.0-0.0-2.0","auditory","A02BED","13","BDS-RESPONSE","3","6,9,1","6,9,1","1","3,4,5,6,6,5,6,7,8,8,9,9","0","0",""
"","","","call-function","6","18640","0.0-0.0-1.0-0.0-3.0","auditory","A02BED","","","","","","","","","",""
"1402","<p>Test 2 von 12</p>","0","html-button-response","7","20043","0.0-0.0-1.1-0.1-0.1","auditory","A02BED","","","","","","","","","",""
"null","digits/nine.wav","","audio-keyboard-response","8","21224","0.0-0.0-1.1-0.1-1.3-0.3","auditory","A02BED","null","","","","","","","","",""
"null","digits/four.wav","","audio-keyboard-response","9","22243","0.0-0.0-1.1-0.1-1.4-0.4","auditory","A02BED","null","","","","","","","","",""
"null","digits/two.wav","","audio-keyboard-response","10","23303","0.0-0.0-1.1-0.1-1.5-0.5","auditory","A02BED","null","","","","","","","","",""
"null","digits/seven.wav","","audio-keyboard-response","11","24374","0.0-0.0-1.1-0.1-1.6-0.6","auditory","A02BED","null","","","","","","","","",""
"13138","<div class = numbox><p>Wie lauteten die Zahlen <b>in umgekehrter Reihenfolge</b>?<br> Antwort mit Enter-Taste best&auml;tigen.</p><button id = button_1 class = ""square num-button"" onclick = ""recordClick(this)""><div class = content><div class = numbers>1</div></div></button><button id = button_2 class = ""square num-button"" onclick = ""recordClick(this)""><div class = content><div class = numbers>2</div></div></button><button id = button_3 class = ""square num-button"" onclick = ""recordClick(this)""><div class = content><div class = numbers>3</div></div></button><button id = button_4 class = ""square num-button"" onclick = ""recordClick(this)""><div class = content><div class = numbers>4</div></div></button><button id = button_5 class = ""square num-button"" onclick = ""recordClick(this)""><div class = content><div class = numbers>5</div></div></button><button id = button_6 class = ""square num-button"" onclick = ""recordClick(this)""><div class = content><div class = numbers>6</div></div></button><button id = button_7 class = ""square num-button"" onclick = ""recordClick(this)""><div class = content><div class = numbers>7</div></div></button><button id = button_8 class = ""square num-button"" onclick = ""recordClick(this)""><div class = content><div class = numbers>8</div></div></button><button id = button_9 class = ""square num-button"" onclick = ""recordClick(this)""><div class = content><div class = numbers>9</div></div></button><button class = clear_button id = ""ClearButton"" onclick = ""clearResponse()"">L&ouml;schen</button><p><u><b>Ihre Antwort:</b></u></p><div id=echoed_txt style=""font-size: 30px; color:blue;""><b></b></div></div>","","html-keyboard-response","12","37772","0.0-0.0-1.1-0.1-2.1","auditory","A02BED","13","BDS-RESPONSE","4","7,2,4,9","7,2,4,9","1","3,4,5,6,6,5,6,7,8,8,9,9","3","1",""
"","","","call-function","13","37773","0.0-0.0-1.1-0.1-3.1","auditory","A02BED","","","","","","","","","",""
"16454","<p>Test 3 von 12</p>","0","html-button-response","14","54228","0.0-0.0-1.2-0.2-0.2","auditory","A02BED","","","","","","","","","",""
"null","digits/seven.wav","","audio-keyboard-response","15","55553","0.0-0.0-1.2-0.2-1.7-0.7","auditory","A02BED","null","","","","","","","","",""
"null","digits/nine.wav","","audio-keyboard-response","16","56483","0.0-0.0-1.2-0.2-1.8-0.8","auditory","A02BED","null","","","","","","","","",""
"null","digits/five.wav","","audio-keyboard-response","17","57523","0.0-0.0-1.2-0.2-1.9-0.9","auditory","A02BED","null","","","","","","","","",""
"null","digits/one.wav","","audio-keyboard-response","18","58663","0.0-0.0-1.2-0.2-1.10-0.10","auditory","A02BED","null","","","","","","","","",""
"null","digits/two.wav","","audio-keyboard-response","19","59723","0.0-0.0-1.2-0.2-1.11-0.11","auditory","A02BED","null","","","","","","","","",""
"8597","<div class = numbox><p>Wie lauteten die Zahlen <b>in umgekehrter Reihenfolge</b>?<br> Antwort mit Enter-Taste best&auml;tigen.</p><button id = button_1 class = ""square num-button"" onclick = ""recordClick(this)""><div class = content><div class = numbers>1</div></div></button><button id = button_2 class = ""square num-button"" onclick = ""recordClick(this)""><div class = content><div class = numbers>2</div></div></button><button id = button_3 class = ""square num-button"" onclick = ""recordClick(this)""><div class = content><div class = numbers>3</div></div></button><button id = button_4 class = ""square num-button"" onclick = ""recordClick(this)""><div class = content><div class = numbers>4</div></div></button><button id = button_5 class = ""square num-button"" onclick = ""recordClick(this)""><div class = content><div class = numbers>5</div></div></button><button id = button_6 class = ""square num-button"" onclick = ""recordClick(this)""><div class = content><div class = numbers>6</div></div></button><button id = button_7 class = ""square num-button"" onclick = ""recordClick(this)""><div class = content><div class = numbers>7</div></div></button><button id = button_8 class = ""square num-button"" onclick = ""recordClick(this)""><div class = content><div class = numbers>8</div></div></button><button id = button_9 class = ""square num-button"" onclick = ""recordClick(this)""><div class = content><div class = numbers>9</div></div></button><button class = clear_button id = ""ClearButton"" onclick = ""clearResponse()"">L&ouml;schen</button><p><u><b>Ihre Antwort:</b></u></p><div id=echoed_txt style=""font-size: 30px; color:blue;""><b></b></div></div>","","html-keyboard-response","20","68580","0.0-0.0-1.2-0.2-2.2","auditory","A02BED","13","BDS-RESPONSE","5","2,1,5,9,7","2,1,5,9,7","1","3,4,5,6,6,5,6,7,8,8,9,9","4","2",""
"","","","call-function","21","68580","0.0-0.0-1.2-0.2-3.2","auditory","A02BED","","","","","","","","","",""
"9175","<p>Test 4 von 12</p>","0","html-button-response","22","77755","0.0-0.0-1.3-0.3-0.3","auditory","A02BED","","","","","","","","","",""
"null","digits/eight.wav","","audio-keyboard-response","23","78883","0.0-0.0-1.3-0.3-1.12-0.12","auditory","A02BED","null","","","","","","","","",""
"null","digits/two.wav","","audio-keyboard-response","24","79943","0.0-0.0-1.3-0.3-1.13-0.13","auditory","A02BED","null","","","","","","","","",""
"null","digits/seven.wav","","audio-keyboard-response","25","81023","0.0-0.0-1.3-0.3-1.14-0.14","auditory","A02BED","null","","","","","","","","",""
"null","digits/four.wav","","audio-keyboard-response","26","82053","0.0-0.0-1.3-0.3-1.15-0.15","auditory","A02BED","null","","","","","","","","",""
"null","digits/one.wav","","audio-keyboard-response","27","83183","0.0-0.0-1.3-0.3-1.16-0.16","auditory","A02BED","null","","","","","","","","",""
"null","digits/nine.wav","","audio-keyboard-response","28","84123","0.0-0.0-1.3-0.3-1.17-0.17","auditory","A02BED","null","","","","","","","","",""
"13268","<div class = numbox><p>Wie lauteten die Zahlen <b>in umgekehrter Reihenfolge</b>?<br> Antwort mit Enter-Taste best&auml;tigen.</p><button id = button_1 class = ""square num-button"" onclick = ""recordClick(this)""><div class = content><div class = numbers>1</div></div></button><button id = button_2 class = ""square num-button"" onclick = ""recordClick(this)""><div class = content><div class = numbers>2</div></div></button><button id = button_3 class = ""square num-button"" onclick = ""recordClick(this)""><div class = content><div class = numbers>3</div></div></button><button id = button_4 class = ""square num-button"" onclick = ""recordClick(this)""><div class = content><div class = numbers>4</div></div></button><button id = button_5 class = ""square num-button"" onclick = ""recordClick(this)""><div class = content><div class = numbers>5</div></div></button><button id = button_6 class = ""square num-button"" onclick = ""recordClick(this)""><div class = content><div class = numbers>6</div></div></button><button id = button_7 class = ""square num-button"" onclick = ""recordClick(this)""><div class = content><div class = numbers>7</div></div></button><button id = button_8 class = ""square num-button"" onclick = ""recordClick(this)""><div class = content><div class = numbers>8</div></div></button><button id = button_9 class = ""square num-button"" onclick = ""recordClick(this)""><div class = content><div class = numbers>9</div></div></button><button class = clear_button id = ""ClearButton"" onclick = ""clearResponse()"">L&ouml;schen</button><p><u><b>Ihre Antwort:</b></u></p><div id=echoed_txt style=""font-size: 30px; color:blue;""><b></b></div></div>","","html-keyboard-response","29","97650","0.0-0.0-1.3-0.3-2.3","auditory","A02BED","13","BDS-RESPONSE","6","9,4,1,4,7,2,8","9,1,4,7,2,8","0","3,4,5,6,6,5,6,7,8,8,9,9","5","3",""
"","","","call-function","30","97650","0.0-0.0-1.3-0.3-3.3","auditory","A02BED","","","","","","","","","",""
"4305","<p>Test 5 von 12</p>","0","html-button-response","31","101955","0.0-0.0-1.4-0.4-0.4","auditory","A02BED","","","","","","","","","",""
"null","digits/six.wav","","audio-keyboard-response","32","103253","0.0-0.0-1.4-0.4-1.18-0.18","auditory","A02BED","null","","","","","","","","",""
"null","digits/one.wav","","audio-keyboard-response","33","104383","0.0-0.0-1.4-0.4-1.19-0.19","auditory","A02BED","null","","","","","","","","",""
"null","digits/five.wav","","audio-keyboard-response","34","105423","0.0-0.0-1.4-0.4-1.20-0.20","auditory","A02BED","null","","","","","","","","",""
"null","digits/seven.wav","","audio-keyboard-response","35","106503","0.0-0.0-1.4-0.4-1.21-0.21","auditory","A02BED","null","","","","","","","","",""
"null","digits/four.wav","","audio-keyboard-response","36","107523","0.0-0.0-1.4-0.4-1.22-0.22","auditory","A02BED","null","","","","","","","","",""
"null","digits/two.wav","","audio-keyboard-response","37","108583","0.0-0.0-1.4-0.4-1.23-0.23","auditory","A02BED","null","","","","","","","","",""
"29727","<div class = numbox><p>Wie lauteten die Zahlen <b>in umgekehrter Reihenfolge</b>?<br> Antwort mit Enter-Taste best&auml;tigen.</p><button id = button_1 class = ""square num-button"" onclick = ""recordClick(this)""><div class = content><div class = numbers>1</div></div></button><button id = button_2 class = ""square num-button"" onclick = ""recordClick(this)""><div class = content><div class = numbers>2</div></div></button><button id = button_3 class = ""square num-button"" onclick = ""recordClick(this)""><div class = content><div class = numbers>3</div></div></button><button id = button_4 class = ""square num-button"" onclick = ""recordClick(this)""><div class = content><div class = numbers>4</div></div></button><button id = button_5 class = ""square num-button"" onclick = ""recordClick(this)""><div class = content><div class = numbers>5</div></div></button><button id = button_6 class = ""square num-button"" onclick = ""recordClick(this)""><div class = content><div class = numbers>6</div></div></button><button id = button_7 class = ""square num-button"" onclick = ""recordClick(this)""><div class = content><div class = numbers>7</div></div></button><button id = button_8 class = ""square num-button"" onclick = ""recordClick(this)""><div class = content><div class = numbers>8</div></div></button><button id = button_9 class = ""square num-button"" onclick = ""recordClick(this)""><div class = content><div class = numbers>9</div></div></button><button class = clear_button id = ""ClearButton"" onclick = ""clearResponse()"">L&ouml;schen</button><p><u><b>Ihre Antwort:</b></u></p><div id=echoed_txt style=""font-size: 30px; color:blue;""><b></b></div></div>","","html-keyboard-response","38","138570","0.0-0.0-1.4-0.4-2.4","auditory","A02BED","13","BDS-RESPONSE","6","2,4,7,5,2,8","2,4,7,5,1,6","0","3,4,5,6,6,5,6,7,8,8,9,9","5","3",""
"","","","call-function","39","138570","0.0-0.0-1.4-0.4-3.4","auditory","A02BED","","","","","","","","","",""
"17849","<p>Test 6 von 12</p>","0","html-button-response","40","156419","0.0-0.0-1.5-0.5-0.5","auditory","A02BED","","","","","","","","","",""
"null","digits/one.wav","","audio-keyboard-response","41","158581","0.0-0.0-1.5-0.5-1.24-0.24","auditory","A02BED","null","","","","","","","","",""
"null","digits/eight.wav","","audio-keyboard-response","42","159461","0.0-0.0-1.5-0.5-1.25-0.25","auditory","A02BED","null","","","","","","","","",""
"null","digits/four.wav","","audio-keyboard-response","43","160481","0.0-0.0-1.5-0.5-1.26-0.26","auditory","A02BED","null","","","","","","","","",""
"null","digits/six.wav","","audio-keyboard-response","44","161531","0.0-0.0-1.5-0.5-1.27-0.27","auditory","A02BED","null","","","","","","","","",""
"null","digits/nine.wav","","audio-keyboard-response","45","162461","0.0-0.0-1.5-0.5-1.28-0.28","auditory","A02BED","null","","","","","","","","",""
"8709","<div class = numbox><p>Wie lauteten die Zahlen <b>in umgekehrter Reihenfolge</b>?<br> Antwort mit Enter-Taste best&auml;tigen.</p><button id = button_1 class = ""square num-button"" onclick = ""recordClick(this)""><div class = content><div class = numbers>1</div></div></button><button id = button_2 class = ""square num-button"" onclick = ""recordClick(this)""><div class = content><div class = numbers>2</div></div></button><button id = button_3 class = ""square num-button"" onclick = ""recordClick(this)""><div class = content><div class = numbers>3</div></div></button><button id = button_4 class = ""square num-button"" onclick = ""recordClick(this)""><div class = content><div class = numbers>4</div></div></button><button id = button_5 class = ""square num-button"" onclick = ""recordClick(this)""><div class = content><div class = numbers>5</div></div></button><button id = button_6 class = ""square num-button"" onclick = ""recordClick(this)""><div class = content><div class = numbers>6</div></div></button><button id = button_7 class = ""square num-button"" onclick = ""recordClick(this)""><div class = content><div class = numbers>7</div></div></button><button id = button_8 class = ""square num-button"" onclick = ""recordClick(this)""><div class = content><div class = numbers>8</div></div></button><button id = button_9 class = ""square num-button"" onclick = ""recordClick(this)""><div class = content><div class = numbers>9</div></div></button><button class = clear_button id = ""ClearButton"" onclick = ""clearResponse()"">L&ouml;schen</button><p><u><b>Ihre Antwort:</b></u></p><div id=echoed_txt style=""font-size: 30px; color:blue;""><b></b></div></div>","","html-keyboard-response","46","171429","0.0-0.0-1.5-0.5-2.5","auditory","A02BED","13","BDS-RESPONSE","5","9,6,4,8,1","9,6,4,8,1","1","3,4,5,6,6,5,6,7,8,8,9,9","5","3",""
"","","","call-function","47","171429","0.0-0.0-1.5-0.5-3.5","auditory","A02BED","","","","","","","","","",""
"4358","<p>Test 7 von 12</p>","0","html-button-response","48","175788","0.0-0.0-1.6-0.6-0.6","auditory","A02BED","","","","","","","","","",""
"null","digits/seven.wav","","audio-keyboard-response","49","177119","0.0-0.0-1.6-0.6-1.29-0.29","auditory","A02BED","null","","","","","","","","",""
"null","digits/eight.wav","","audio-keyboard-response","50","177999","0.0-0.0-1.6-0.6-1.30-0.30","auditory","A02BED","null","","","","","","","","",""
"null","digits/four.wav","","audio-keyboard-response","51","179019","0.0-0.0-1.6-0.6-1.31-0.31","auditory","A02BED","null","","","","","","","","",""
"null","digits/one.wav","","audio-keyboard-response","52","180139","0.0-0.0-1.6-0.6-1.32-0.32","auditory","A02BED","null","","","","","","","","",""
"null","digits/five.wav","","audio-keyboard-response","53","181179","0.0-0.0-1.6-0.6-1.33-0.33","auditory","A02BED","null","","","","","","","","",""
"null","digits/six.wav","","audio-keyboard-response","54","182229","0.0-0.0-1.6-0.6-1.34-0.34","auditory","A02BED","null","","","","","","","","",""
"16885","<div class = numbox><p>Wie lauteten die Zahlen <b>in umgekehrter Reihenfolge</b>?<br> Antwort mit Enter-Taste best&auml;tigen.</p><button id = button_1 class = ""square num-button"" onclick = ""recordClick(this)""><div class = content><div class = numbers>1</div></div></button><button id = button_2 class = ""square num-button"" onclick = ""recordClick(this)""><div class = content><div class = numbers>2</div></div></button><button id = button_3 class = ""square num-button"" onclick = ""recordClick(this)""><div class = content><div class = numbers>3</div></div></button><button id = button_4 class = ""square num-button"" onclick = ""recordClick(this)""><div class = content><div class = numbers>4</div></div></button><button id = button_5 class = ""square num-button"" onclick = ""recordClick(this)""><div class = content><div class = numbers>5</div></div></button><button id = button_6 class = ""square num-button"" onclick = ""recordClick(this)""><div class = content><div class = numbers>6</div></div></button><button id = button_7 class = ""square num-button"" onclick = ""recordClick(this)""><div class = content><div class = numbers>7</div></div></button><button id = button_8 class = ""square num-button"" onclick = ""recordClick(this)""><div class = content><div class = numbers>8</div></div></button><button id = button_9 class = ""square num-button"" onclick = ""recordClick(this)""><div class = content><div class = numbers>9</div></div></button><button class = clear_button id = ""ClearButton"" onclick = ""clearResponse()"">L&ouml;schen</button><p><u><b>Ihre Antwort:</b></u></p><div id=echoed_txt style=""font-size: 30px; color:blue;""><b></b></div></div>","","html-keyboard-response","55","199373","0.0-0.0-1.6-0.6-2.6","auditory","A02BED","13","BDS-RESPONSE","6","6,5,1,4,8,7","6,5,1,4,8,7","1","3,4,5,6,6,5,6,7,8,8,9,9","5","4",""
"","","","call-function","56","199373","0.0-0.0-1.6-0.6-3.6","auditory","A02BED","","","","","","","","","",""
"1539","<p>Test 8 von 12</p>","0","html-button-response","57","200914","0.0-0.0-1.7-0.7-0.7","auditory","A02BED","","","","","","","","","",""
"null","digits/four.wav","","audio-keyboard-response","58","202179","0.0-0.0-1.7-0.7-1.35-0.35","auditory","A02BED","null","","","","","","","","",""
"null","digits/five.wav","","audio-keyboard-response","59","203219","0.0-0.0-1.7-0.7-1.36-0.36","auditory","A02BED","null","","","","","","","","",""
"null","digits/two.wav","","audio-keyboard-response","60","204269","0.0-0.0-1.7-0.7-1.37-0.37","auditory","A02BED","null","","","","","","","","",""
"null","digits/eight.wav","","audio-keyboard-response","61","205149","0.0-0.0-1.7-0.7-1.38-0.38","auditory","A02BED","null","","","","","","","","",""
"null","digits/seven.wav","","audio-keyboard-response","62","206219","0.0-0.0-1.7-0.7-1.39-0.39","auditory","A02BED","null","","","","","","","","",""
"null","digits/one.wav","","audio-keyboard-response","63","207339","0.0-0.0-1.7-0.7-1.40-0.40","auditory","A02BED","null","","","","","","","","",""
"null","digits/six.wav","","audio-keyboard-response","64","208389","0.0-0.0-1.7-0.7-1.41-0.41","auditory","A02BED","null","","","","","","","","",""
"20127","<div class = numbox><p>Wie lauteten die Zahlen <b>in umgekehrter Reihenfolge</b>?<br> Antwort mit Enter-Taste best&auml;tigen.</p><button id = button_1 class = ""square num-button"" onclick = ""recordClick(this)""><div class = content><div class = numbers>1</div></div></button><button id = button_2 class = ""square num-button"" onclick = ""recordClick(this)""><div class = content><div class = numbers>2</div></div></button><button id = button_3 class = ""square num-button"" onclick = ""recordClick(this)""><div class = content><div class = numbers>3</div></div></button><button id = button_4 class = ""square num-button"" onclick = ""recordClick(this)""><div class = content><div class = numbers>4</div></div></button><button id = button_5 class = ""square num-button"" onclick = ""recordClick(this)""><div class = content><div class = numbers>5</div></div></button><button id = button_6 class = ""square num-button"" onclick = ""recordClick(this)""><div class = content><div class = numbers>6</div></div></button><button id = button_7 class = ""square num-button"" onclick = ""recordClick(this)""><div class = content><div class = numbers>7</div></div></button><button id = button_8 class = ""square num-button"" onclick = ""recordClick(this)""><div class = content><div class = numbers>8</div></div></button><button id = button_9 class = ""square num-button"" onclick = ""recordClick(this)""><div class = content><div class = numbers>9</div></div></button><button class = clear_button id = ""ClearButton"" onclick = ""clearResponse()"">L&ouml;schen</button><p><u><b>Ihre Antwort:</b></u></p><div id=echoed_txt style=""font-size: 30px; color:blue;""><b></b></div></div>","","html-keyboard-response","65","228775","0.0-0.0-1.7-0.7-2.7","auditory","A02BED","13","BDS-RESPONSE","7","6,1,7,8,2,5,4","6,1,7,8,2,5,4","1","3,4,5,6,6,5,6,7,8,8,9,9","6","5",""
"","","","call-function","66","228776","0.0-0.0-1.7-0.7-3.7","auditory","A02BED","","","","","","","","","",""
"5929","<p>Test 9 von 12</p>","0","html-button-response","67","234706","0.0-0.0-1.8-0.8-0.8","auditory","A02BED","","","","","","","","","",""
"null","digits/seven.wav","","audio-keyboard-response","68","236019","0.0-0.0-1.8-0.8-1.42-0.42","auditory","A02BED","null","","","","","","","","",""
"null","digits/three.wav","","audio-keyboard-response","69","237019","0.0-0.0-1.8-0.8-1.43-0.43","auditory","A02BED","null","","","","","","","","",""
"null","digits/four.wav","","audio-keyboard-response","70","238041","0.0-0.0-1.8-0.8-1.44-0.44","auditory","A02BED","null","","","","","","","","",""
"null","digits/five.wav","","audio-keyboard-response","71","239081","0.0-0.0-1.8-0.8-1.45-0.45","auditory","A02BED","null","","","","","","","","",""
"null","digits/one.wav","","audio-keyboard-response","72","240221","0.0-0.0-1.8-0.8-1.46-0.46","auditory","A02BED","null","","","","","","","","",""
"null","digits/six.wav","","audio-keyboard-response","73","241271","0.0-0.0-1.8-0.8-1.47-0.47","auditory","A02BED","null","","","","","","","","",""
"null","digits/eight.wav","","audio-keyboard-response","74","242151","0.0-0.0-1.8-0.8-1.48-0.48","auditory","A02BED","null","","","","","","","","",""
"null","digits/two.wav","","audio-keyboard-response","75","243201","0.0-0.0-1.8-0.8-1.49-0.49","auditory","A02BED","null","","","","","","","","",""
"11456","<div class = numbox><p>Wie lauteten die Zahlen <b>in umgekehrter Reihenfolge</b>?<br> Antwort mit Enter-Taste best&auml;tigen.</p><button id = button_1 class = ""square num-button"" onclick = ""recordClick(this)""><div class = content><div class = numbers>1</div></div></button><button id = button_2 class = ""square num-button"" onclick = ""recordClick(this)""><div class = content><div class = numbers>2</div></div></button><button id = button_3 class = ""square num-button"" onclick = ""recordClick(this)""><div class = content><div class = numbers>3</div></div></button><button id = button_4 class = ""square num-button"" onclick = ""recordClick(this)""><div class = content><div class = numbers>4</div></div></button><button id = button_5 class = ""square num-button"" onclick = ""recordClick(this)""><div class = content><div class = numbers>5</div></div></button><button id = button_6 class = ""square num-button"" onclick = ""recordClick(this)""><div class = content><div class = numbers>6</div></div></button><button id = button_7 class = ""square num-button"" onclick = ""recordClick(this)""><div class = content><div class = numbers>7</div></div></button><button id = button_8 class = ""square num-button"" onclick = ""recordClick(this)""><div class = content><div class = numbers>8</div></div></button><button id = button_9 class = ""square num-button"" onclick = ""recordClick(this)""><div class = content><div class = numbers>9</div></div></button><button class = clear_button id = ""ClearButton"" onclick = ""clearResponse()"">L&ouml;schen</button><p><u><b>Ihre Antwort:</b></u></p><div id=echoed_txt style=""font-size: 30px; color:blue;""><b></b></div></div>","","html-keyboard-response","76","254917","0.0-0.0-1.8-0.8-2.8","auditory","A02BED","13","BDS-RESPONSE","8","2,8,6,5,4,3,7","2,8,6,1,5,4,3,7","0","3,4,5,6,6,5,6,7,8,8,9,9","7","6",""
"","","","call-function","77","254918","0.0-0.0-1.8-0.8-3.8","auditory","A02BED","","","","","","","","","",""
"31349","<p>Test 10 von 12</p>","0","html-button-response","78","286267","0.0-0.0-1.9-0.9-0.9","auditory","A02BED","","","","","","","","","",""
"null","digits/six.wav","","audio-keyboard-response","79","287847","0.0-0.0-1.9-0.9-1.50-0.50","auditory","A02BED","null","","","","","","","","",""
"null","digits/nine.wav","","audio-keyboard-response","80","288777","0.0-0.0-1.9-0.9-1.51-0.51","auditory","A02BED","null","","","","","","","","",""
"null","digits/four.wav","","audio-keyboard-response","81","289797","0.0-0.0-1.9-0.9-1.52-0.52","auditory","A02BED","null","","","","","","","","",""
"null","digits/two.wav","","audio-keyboard-response","82","290847","0.0-0.0-1.9-0.9-1.53-0.53","auditory","A02BED","null","","","","","","","","",""
"null","digits/eight.wav","","audio-keyboard-response","83","291727","0.0-0.0-1.9-0.9-1.54-0.54","auditory","A02BED","null","","","","","","","","",""
"null","digits/three.wav","","audio-keyboard-response","84","292727","0.0-0.0-1.9-0.9-1.55-0.55","auditory","A02BED","null","","","","","","","","",""
"null","digits/seven.wav","","audio-keyboard-response","85","293797","0.0-0.0-1.9-0.9-1.56-0.56","auditory","A02BED","null","","","","","","","","",""
"null","digits/five.wav","","audio-keyboard-response","86","294837","0.0-0.0-1.9-0.9-1.57-0.57","auditory","A02BED","null","","","","","","","","",""
"18449","<div class = numbox><p>Wie lauteten die Zahlen <b>in umgekehrter Reihenfolge</b>?<br> Antwort mit Enter-Taste best&auml;tigen.</p><button id = button_1 class = ""square num-button"" onclick = ""recordClick(this)""><div class = content><div class = numbers>1</div></div></button><button id = button_2 class = ""square num-button"" onclick = ""recordClick(this)""><div class = content><div class = numbers>2</div></div></button><button id = button_3 class = ""square num-button"" onclick = ""recordClick(this)""><div class = content><div class = numbers>3</div></div></button><button id = button_4 class = ""square num-button"" onclick = ""recordClick(this)""><div class = content><div class = numbers>4</div></div></button><button id = button_5 class = ""square num-button"" onclick = ""recordClick(this)""><div class = content><div class = numbers>5</div></div></button><button id = button_6 class = ""square num-button"" onclick = ""recordClick(this)""><div class = content><div class = numbers>6</div></div></button><button id = button_7 class = ""square num-button"" onclick = ""recordClick(this)""><div class = content><div class = numbers>7</div></div></button><button id = button_8 class = ""square num-button"" onclick = ""recordClick(this)""><div class = content><div class = numbers>8</div></div></button><button id = button_9 class = ""square num-button"" onclick = ""recordClick(this)""><div class = content><div class = numbers>9</div></div></button><button class = clear_button id = ""ClearButton"" onclick = ""clearResponse()"">L&ouml;schen</button><p><u><b>Ihre Antwort:</b></u></p><div id=echoed_txt style=""font-size: 30px; color:blue;""><b></b></div></div>","","html-keyboard-response","87","313547","0.0-0.0-1.9-0.9-2.9","auditory","A02BED","13","BDS-RESPONSE","8","5,7,3,8,2,4,9,6","5,7,3,8,2,4,9,6","1","3,4,5,6,6,5,6,7,8,8,9,9","7","6",""
"","","","call-function","88","313547","0.0-0.0-1.9-0.9-3.9","auditory","A02BED","","","","","","","","","",""
"6024","<p>Test 11 von 12</p>","0","html-button-response","89","319571","0.0-0.0-1.10-0.10-0.10","auditory","A02BED","","","","","","","","","",""
"null","digits/three.wav","","audio-keyboard-response","90","320837","0.0-0.0-1.10-0.10-1.58-0.58","auditory","A02BED","null","","","","","","","","",""
"null","digits/seven.wav","","audio-keyboard-response","91","321916","0.0-0.0-1.10-0.10-1.59-0.59","auditory","A02BED","null","","","","","","","","",""
"null","digits/six.wav","","audio-keyboard-response","92","322977","0.0-0.0-1.10-0.10-1.60-0.60","auditory","A02BED","null","","","","","","","","",""
"null","digits/two.wav","","audio-keyboard-response","93","324037","0.0-0.0-1.10-0.10-1.61-0.61","auditory","A02BED","null","","","","","","","","",""
"null","digits/four.wav","","audio-keyboard-response","94","325057","0.0-0.0-1.10-0.10-1.62-0.62","auditory","A02BED","null","","","","","","","","",""
"null","digits/nine.wav","","audio-keyboard-response","95","325988","0.0-0.0-1.10-0.10-1.63-0.63","auditory","A02BED","null","","","","","","","","",""
"null","digits/eight.wav","","audio-keyboard-response","96","326866","0.0-0.0-1.10-0.10-1.64-0.64","auditory","A02BED","null","","","","","","","","",""
"null","digits/five.wav","","audio-keyboard-response","97","327906","0.0-0.0-1.10-0.10-1.65-0.65","auditory","A02BED","null","","","","","","","","",""
"null","digits/one.wav","","audio-keyboard-response","98","329037","0.0-0.0-1.10-0.10-1.66-0.66","auditory","A02BED","null","","","","","","","","",""
"25263","<div class = numbox><p>Wie lauteten die Zahlen <b>in umgekehrter Reihenfolge</b>?<br> Antwort mit Enter-Taste best&auml;tigen.</p><button id = button_1 class = ""square num-button"" onclick = ""recordClick(this)""><div class = content><div class = numbers>1</div></div></button><button id = button_2 class = ""square num-button"" onclick = ""recordClick(this)""><div class = content><div class = numbers>2</div></div></button><button id = button_3 class = ""square num-button"" onclick = ""recordClick(this)""><div class = content><div class = numbers>3</div></div></button><button id = button_4 class = ""square num-button"" onclick = ""recordClick(this)""><div class = content><div class = numbers>4</div></div></button><button id = button_5 class = ""square num-button"" onclick = ""recordClick(this)""><div class = content><div class = numbers>5</div></div></button><button id = button_6 class = ""square num-button"" onclick = ""recordClick(this)""><div class = content><div class = numbers>6</div></div></button><button id = button_7 class = ""square num-button"" onclick = ""recordClick(this)""><div class = content><div class = numbers>7</div></div></button><button id = button_8 class = ""square num-button"" onclick = ""recordClick(this)""><div class = content><div class = numbers>8</div></div></button><button id = button_9 class = ""square num-button"" onclick = ""recordClick(this)""><div class = content><div class = numbers>9</div></div></button><button class = clear_button id = ""ClearButton"" onclick = ""clearResponse()"">L&ouml;schen</button><p><u><b>Ihre Antwort:</b></u></p><div id=echoed_txt style=""font-size: 30px; color:blue;""><b></b></div></div>","","html-keyboard-response","99","354557","0.0-0.0-1.10-0.10-2.10","auditory","A02BED","13","BDS-RESPONSE","9","1,5,8,9,4,2,9,7,3","1,5,8,9,4,2,6,7,3","0","3,4,5,6,6,5,6,7,8,8,9,9","8","7",""
"","","","call-function","100","354557","0.0-0.0-1.10-0.10-3.10","auditory","A02BED","","","","","","","","","",""
"16030","<p>Test 12 von 12</p>","0","html-button-response","101","370587","0.0-0.0-1.11-0.11-0.11","auditory","A02BED","","","","","","","","","",""
"null","digits/two.wav","","audio-keyboard-response","102","372166","0.0-0.0-1.11-0.11-1.67-0.67","auditory","A02BED","null","","","","","","","","",""
"null","digits/five.wav","","audio-keyboard-response","103","373216","0.0-0.0-1.11-0.11-1.68-0.68","auditory","A02BED","null","","","","","","","","",""
"null","digits/four.wav","","audio-keyboard-response","104","374246","0.0-0.0-1.11-0.11-1.69-0.69","auditory","A02BED","null","","","","","","","","",""
"null","digits/nine.wav","","audio-keyboard-response","105","375176","0.0-0.0-1.11-0.11-1.70-0.70","auditory","A02BED","null","","","","","","","","",""
"null","digits/seven.wav","","audio-keyboard-response","106","376256","0.0-0.0-1.11-0.11-1.71-0.71","auditory","A02BED","null","","","","","","","","",""
"null","digits/eight.wav","","audio-keyboard-response","107","377136","0.0-0.0-1.11-0.11-1.72-0.72","auditory","A02BED","null","","","","","","","","",""
"null","digits/six.wav","","audio-keyboard-response","108","378186","0.0-0.0-1.11-0.11-1.73-0.73","auditory","A02BED","null","","","","","","","","",""
"null","digits/one.wav","","audio-keyboard-response","109","379316","0.0-0.0-1.11-0.11-1.74-0.74","auditory","A02BED","null","","","","","","","","",""
"null","digits/three.wav","","audio-keyboard-response","110","380336","0.0-0.0-1.11-0.11-1.75-0.75","auditory","A02BED","null","","","","","","","","",""
"21539","<div class = numbox><p>Wie lauteten die Zahlen <b>in umgekehrter Reihenfolge</b>?<br> Antwort mit Enter-Taste best&auml;tigen.</p><button id = button_1 class = ""square num-button"" onclick = ""recordClick(this)""><div class = content><div class = numbers>1</div></div></button><button id = button_2 class = ""square num-button"" onclick = ""recordClick(this)""><div class = content><div class = numbers>2</div></div></button><button id = button_3 class = ""square num-button"" onclick = ""recordClick(this)""><div class = content><div class = numbers>3</div></div></button><button id = button_4 class = ""square num-button"" onclick = ""recordClick(this)""><div class = content><div class = numbers>4</div></div></button><button id = button_5 class = ""square num-button"" onclick = ""recordClick(this)""><div class = content><div class = numbers>5</div></div></button><button id = button_6 class = ""square num-button"" onclick = ""recordClick(this)""><div class = content><div class = numbers>6</div></div></button><button id = button_7 class = ""square num-button"" onclick = ""recordClick(this)""><div class = content><div class = numbers>7</div></div></button><button id = button_8 class = ""square num-button"" onclick = ""recordClick(this)""><div class = content><div class = numbers>8</div></div></button><button id = button_9 class = ""square num-button"" onclick = ""recordClick(this)""><div class = content><div class = numbers>9</div></div></button><button class = clear_button id = ""ClearButton"" onclick = ""clearResponse()"">L&ouml;schen</button><p><u><b>Ihre Antwort:</b></u></p><div id=echoed_txt style=""font-size: 30px; color:blue;""><b></b></div></div>","","html-keyboard-response","111","402136","0.0-0.0-1.11-0.11-2.11","auditory","A02BED","13","BDS-RESPONSE","9","3,1,6,8,7,9,4,5,2","3,1,6,8,7,9,4,5,2","1","3,4,5,6,6,5,6,7,8,8,9,9","8","7",""
"","","","call-function","112","402136","0.0-0.0-1.11-0.11-3.11","auditory","A02BED","","","","","","","","","",""
