"rt","stimulus","button_pressed","trial_type","trial_index","time_elapsed","internal_node_id","BDS_modality","subject","key_press","designation","span","answer","correct","was_correct","spanHistory","max_span","total_correct","value"
"2380","<p>Willkommen bei der <b>Ziffernspannen-Aufgabe.</b></p><p>Bei jedem Versuch h&ouml;ren Sie eine Ziffernfolge und sollen diese in umgekehrter Reihenfolge wiedergeben.</p><p>Zum Beispiel, falls sie die Zahlen <b style=""color:blue;"">Eins</b>, <b style=""color:blue;"">Zwei</b>, <b style=""color:blue;"">Drei</b>, geh&ouml;rt haben, dann antworten Sie mit <b style=""color:blue;"">3</b>, <b style=""color:blue;"">2</b>, <b style=""color:blue;"">1</b></p><p>Um eine hohe Qualit&auml;t der Daten zu gew&auml;hrleisten, ist es sehr wichtig, dass Sie keine Ged&auml;chtnisst&uuml;tze (z.B. Stift und Papier) verwenden.<br>Bitte bearbeiten Sie die Aufgabe ausschlie&#223;lich im Kopf.</p><p>Es werden insgesamt 12 Durchl&auml;ufe gemacht. Die Teilname dauert etwa 10 Minuten. Am Ende sehen sie Ihre erreichte Punktzahl.</p>","0","html-button-response","0","2382","0.0-0.0-0.0","auditory","A03F69","","","","","","","","","",""
"23039","<p>Test 1 von 12</p>","0","html-button-response","1","25423","0.0-0.0-1.0-0.0-0.0","auditory","A03F69","","","","","","","","","",""
"null","digits/six.wav","","audio-keyboard-response","2","26792","0.0-0.0-1.0-0.0-1.0-0.0","auditory","A03F69","null","","","","","","","","",""
"null","digits/five.wav","","audio-keyboard-response","3","27826","0.0-0.0-1.0-0.0-1.1-0.1","auditory","A03F69","null","","","","","","","","",""
"null","digits/two.wav","","audio-keyboard-response","4","28872","0.0-0.0-1.0-0.0-1.2-0.2","auditory","A03F69","null","","","","","","","","",""
"13710","<div class = numbox><p>Wie lauteten die Zahlen <b>in umgekehrter Reihenfolge</b>?<br> Antwort mit Enter-Taste best&auml;tigen.</p><button id = button_1 class = ""square num-button"" onclick = ""recordClick(this)""><div class = content><div class = numbers>1</div></div></button><button id = button_2 class = ""square num-button"" onclick = ""recordClick(this)""><div class = content><div class = numbers>2</div></div></button><button id = button_3 class = ""square num-button"" onclick = ""recordClick(this)""><div class = content><div class = numbers>3</div></div></button><button id = button_4 class = ""square num-button"" onclick = ""recordClick(this)""><div class = content><div class = numbers>4</div></div></button><button id = button_5 class = ""square num-button"" onclick = ""recordClick(this)""><div class = content><div class = numbers>5</div></div></button><button id = button_6 class = ""square num-button"" onclick = ""recordClick(this)""><div class = content><div class = numbers>6</div></div></button><button id = button_7 class = ""square num-button"" onclick = ""recordClick(this)""><div class = content><div class = numbers>7</div></div></button><button id = button_8 class = ""square num-button"" onclick = ""recordClick(this)""><div class = content><div class = numbers>8</div></div></button><button id = button_9 class = ""square num-button"" onclick = ""recordClick(this)""><div class = content><div class = numbers>9</div></div></button><button class = clear_button id = ""ClearButton"" onclick = ""clearResponse()"">L&ouml;schen</button><p><u><b>Ihre Antwort:</b></u></p><div id=echoed_txt style=""font-size: 30px; color:blue;""><b></b></div></div>","","html-keyboard-response","5","42834","0.0-0.0-1.0-0.0-2.0","auditory","A03F69","13","BDS-RESPONSE","3","2,5,6","2,5,6","1","3,4,5,6,7,8,8,7,8,9,9,10","0","0",""
"","","","call-function","6","42834","0.0-0.0-1.0-0.0-3.0","auditory","A03F69","","","","","","","","","",""
"3458","<p>Test 2 von 12</p>","0","html-button-response","7","46293","0.0-0.0-1.1-0.1-0.1","auditory","A03F69","","","","","","","","","",""
"null","digits/two.wav","","audio-keyboard-response","8","47592","0.0-0.0-1.1-0.1-1.3-0.3","auditory","A03F69","null","","","","","","","","",""
"null","digits/one.wav","","audio-keyboard-response","9","48712","0.0-0.0-1.1-0.1-1.4-0.4","auditory","A03F69","null","","","","","","","","",""
"null","digits/six.wav","","audio-keyboard-response","10","49759","0.0-0.0-1.1-0.1-1.5-0.5","auditory","A03F69","null","","","","","","","","",""
"null","digits/nine.wav","","audio-keyboard-response","11","50686","0.0-0.0-1.1-0.1-1.6-0.6","auditory","A03F69","null","","","","","","","","",""
"9135","<div class = numbox><p>Wie lauteten die Zahlen <b>in umgekehrter Reihenfolge</b>?<br> Antwort mit Enter-Taste best&auml;tigen.</p><button id = button_1 class = ""square num-button"" onclick = ""recordClick(this)""><div class = content><div class = numbers>1</div></div></button><button id = button_2 class = ""square num-button"" onclick = ""recordClick(this)""><div class = content><div class = numbers>2</div></div></button><button id = button_3 class = ""square num-button"" onclick = ""recordClick(this)""><div class = content><div class = numbers>3</div></div></button><button id = button_4 class = ""square num-button"" onclick = ""recordClick(this)""><div class = content><div class = numbers>4</div></div></button><button id = button_5 class = ""square num-button"" onclick = ""recordClick(this)""><div class = content><div class = numbers>5</div></div></button><button id = button_6 class = ""square num-button"" onclick = ""recordClick(this)""><div class = content><div class = numbers>6</div></div></button><button id = button_7 class = ""square num-button"" onclick = ""recordClick(this)""><div class = content><div class = numbers>7</div></div></button><button id = button_8 class = ""square num-button"" onclick = ""recordClick(this)""><div class = content><div class = numbers>8</div></div></button><button id = button_9 class = ""square num-button"" onclick = ""recordClick(this)""><div class = content><div class = numbers>9</div></div></button><button class = clear_button id = ""ClearButton"" onclick = ""clearResponse()"">L&ouml;schen</button><p><u><b>Ihre Antwort:</b></u></p><div id=echoed_txt style=""font-size: 30px; color:blue;""><b></b></div></div>","","html-keyboard-response","12","60073","0.0-0.0-1.1-0.1-2.1","auditory","A03F69","13","BDS-RESPONSE","4","9,6,1,2","9,6,1,2","1","3,4,5,6,7,8,8,7,8,9,9,10","3","1",""
"","","","call-function","13","60074","0.0-0.0-1.1-0.1-3.1","auditory","A03F69","","","","","","","","","",""
"2287","<p>Test 3 von 12</p>","0","html-button-response","14","62362","0.0-0.0-1.2-0.2-0.2","auditory","A03F69","","","","","","","","","",""
"null","digits/one.wav","","audio-keyboard-response","15","63733","0.0-0.0-1.2-0.2-1.7-0.7","auditory","A03F69","null","","","","","","","","",""
"null","digits/eight.wav","","audio-keyboard-response","16","64606","0.0-0.0-1.2-0.2-1.8-0.8","auditory","A03F69","null","","","","","","","","",""
"null","digits/six.wav","","audio-keyboard-response","17","65651","0.0-0.0-1.2-0.2-1.9-0.9","auditory","A03F69","null","","","","","","","","",""
"null","digits/two.wav","","audio-keyboard-response","18","66697","0.0-0.0-1.2-0.2-1.10-0.10","auditory","A03F69","null","","","","","","","","",""
"null","digits/nine.wav","","audio-keyboard-response","19","67625","0.0-0.0-1.2-0.2-1.11-0.11","auditory","A03F69","null","","","","","","","","",""
"15933","<div class = numbox><p>Wie lauteten die Zahlen <b>in umgekehrter Reihenfolge</b>?<br> Antwort mit Enter-Taste best&auml;tigen.</p><button id = button_1 class = ""square num-button"" onclick = ""recordClick(this)""><div class = content><div class = numbers>1</div></div></button><button id = button_2 class = ""square num-button"" onclick = ""recordClick(this)""><div class = content><div class = numbers>2</div></div></button><button id = button_3 class = ""square num-button"" onclick = ""recordClick(this)""><div class = content><div class = numbers>3</div></div></button><button id = button_4 class = ""square num-button"" onclick = ""recordClick(this)""><div class = content><div class = numbers>4</div></div></button><button id = button_5 class = ""square num-button"" onclick = ""recordClick(this)""><div class = content><div class = numbers>5</div></div></button><button id = button_6 class = ""square num-button"" onclick = ""recordClick(this)""><div class = content><div class = numbers>6</div></div></button><button id = button_7 class = ""square num-button"" onclick = ""recordClick(this)""><div class = content><div class = numbers>7</div></div></button><button id = button_8 class = ""square num-button"" onclick = ""recordClick(this)""><div class = content><div class = numbers>8</div></div></button><button id = button_9 class = ""square num-button"" onclick = ""recordClick(this)""><div class = content><div class = numbers>9</div></div></button><button class = clear_button id = ""ClearButton"" onclick = ""clearResponse()"">L&ouml;schen</button><p><u><b>Ihre Antwort:</b></u></p><div id=echoed_txt style=""font-size: 30px; color:blue;""><b></b></div></div>","","html-keyboard-response","20","83812","0.0-0.0-1.2-0.2-2.2","auditory","A03F69","13","BDS-RESPONSE","5","9,2,6,8,1","9,2,6,8,1","1","3,4,5,6,7,8,8,7,8,9,9,10","4","2",""
"","","","call-function","21","83812","0.0-0.0-1.2-0.2-3.2","auditory","A03F69","","","","","","","","","",""
"7444","<p>Test 4 von 12</p>","0","html-button-response","22","91258","0.0-0.0-1.3-0.3-0.3","auditory","A03F69","","","","","","","","","",""
"null","digits/three.wav","","audio-keyboard-response","23","92511","0.0-0.0-1.3-0.3-1.12-0.12","auditory","A03F69","null","","","","","","","","",""
"null","digits/nine.wav","","audio-keyboard-response","24","93439","0.0-0.0-1.3-0.3-1.13-0.13","auditory","A03F69","null","","","","","","","","",""
"null","digits/seven.wav","","audio-keyboard-response","25","94507","0.0-0.0-1.3-0.3-1.14-0.14","auditory","A03F69","null","","","","","","","","",""
"null","digits/two.wav","","audio-keyboard-response","26","95551","0.0-0.0-1.3-0.3-1.15-0.15","auditory","A03F69","null","","","","","","","","",""
"null","digits/six.wav","","audio-keyboard-response","27","96596","0.0-0.0-1.3-0.3-1.16-0.16","auditory","A03F69","null","","","","","","","","",""
"null","digits/four.wav","","audio-keyboard-response","28","97610","0.0-0.0-1.3-0.3-1.17-0.17","auditory","A03F69","null","","","","","","","","",""
"15939","<div class = numbox><p>Wie lauteten die Zahlen <b>in umgekehrter Reihenfolge</b>?<br> Antwort mit Enter-Taste best&auml;tigen.</p><button id = button_1 class = ""square num-button"" onclick = ""recordClick(this)""><div class = content><div class = numbers>1</div></div></button><button id = button_2 class = ""square num-button"" onclick = ""recordClick(this)""><div class = content><div class = numbers>2</div></div></button><button id = button_3 class = ""square num-button"" onclick = ""recordClick(this)""><div class = content><div class = numbers>3</div></div></button><button id = button_4 class = ""square num-button"" onclick = ""recordClick(this)""><div class = content><div class = numbers>4</div></div></button><button id = button_5 class = ""square num-button"" onclick = ""recordClick(this)""><div class = content><div class = numbers>5</div></div></button><button id = button_6 class = ""square num-button"" onclick = ""recordClick(this)""><div class = content><div class = numbers>6</div></div></button><button id = button_7 class = ""square num-button"" onclick = ""recordClick(this)""><div class = content><div class = numbers>7</div></div></button><button id = button_8 class = ""square num-button"" onclick = ""recordClick(this)""><div class = content><div class = numbers>8</div></div></button><button id = button_9 class = ""square num-button"" onclick = ""recordClick(this)""><div class = content><div class = numbers>9</div></div></button><button class = clear_button id = ""ClearButton"" onclick = ""clearResponse()"">L&ouml;schen</button><p><u><b>Ihre Antwort:</b></u></p><div id=echoed_txt style=""font-size: 30px; color:blue;""><b></b></div></div>","","html-keyboard-response","29","113800","0.0-0.0-1.3-0.3-2.3","auditory","A03F69","13","BDS-RESPONSE","6","4,6,2,7,9,3","4,6,2,7,9,3","1","3,4,5,6,7,8,8,7,8,9,9,10","5","3",""
"","","","call-function","30","113801","0.0-0.0-1.3-0.3-3.3","auditory","A03F69","","","","","","","","","",""
"1522","<p>Test 5 von 12</p>","0","html-button-response","31","115323","0.0-0.0-1.4-0.4-0.4","auditory","A03F69","","","","","","","","","",""
"null","digits/three.wav","","audio-keyboard-response","32","116575","0.0-0.0-1.4-0.4-1.18-0.18","auditory","A03F69","null","","","","","","","","",""
"null","digits/nine.wav","","audio-keyboard-response","33","117504","0.0-0.0-1.4-0.4-1.19-0.19","auditory","A03F69","null","","","","","","","","",""
"null","digits/eight.wav","","audio-keyboard-response","34","118378","0.0-0.0-1.4-0.4-1.20-0.20","auditory","A03F69","null","","","","","","","","",""
"null","digits/one.wav","","audio-keyboard-response","35","119500","0.0-0.0-1.4-0.4-1.21-0.21","auditory","A03F69","null","","","","","","","","",""
"null","digits/four.wav","","audio-keyboard-response","36","120512","0.0-0.0-1.4-0.4-1.22-0.22","auditory","A03F69","null","","","","","","","","",""
"null","digits/seven.wav","","audio-keyboard-response","37","121578","0.0-0.0-1.4-0.4-1.23-0.23","auditory","A03F69","null","","","","","","","","",""
"null","digits/six.wav","","audio-keyboard-response","38","122626","0.0-0.0-1.4-0.4-1.24-0.24","auditory","A03F69","null","","","","","","","","",""
"37171","<div class = numbox><p>Wie lauteten die Zahlen <b>in umgekehrter Reihenfolge</b>?<br> Antwort mit Enter-Taste best&auml;tigen.</p><button id = button_1 class = ""square num-button"" onclick = ""recordClick(this)""><div class = content><div class = numbers>1</div></div></button><button id = button_2 class = ""square num-button"" onclick = ""recordClick(this)""><div class = content><div class = numbers>2</div></div></button><button id = button_3 class = ""square num-button"" onclick = ""recordClick(this)""><div class = content><div class = numbers>3</div></div></button><button id = button_4 class = ""square num-button"" onclick = ""recordClick(this)""><div class = content><div class = numbers>4</div></div></button><button id = button_5 class = ""square num-button"" onclick = ""recordClick(this)""><div class = content><div class = numbers>5</div></div></button><button id = button_6 class = ""square num-button"" onclick = ""recordClick(this)""><div class = content><div class = numbers>6</div></div></button><button id = button_7 class = ""square num-button"" onclick = ""recordClick(this)""><div class = content><div class = numbers>7</div></div></button><button id = button_8 class = ""square num-button"" onclick = ""recordClick(this)""><div class = content><div class = numbers>8</div></div></button><button id = button_9 class = ""square num-button"" onclick = ""recordClick(this)""><div class = content><div class = numbers>9</div></div></button><button class = clear_button id = ""ClearButton"" onclick = ""clearResponse()"">L&ouml;schen</button><p><u><b>Ihre Antwort:</b></u></p><div id=echoed_txt style=""font-size: 30px; color:blue;""><b></b></div></div>","","html-keyboard-response","39","160050","0.0-0.0-1.4-0.4-2.4","auditory","A03F69","13","BDS-RESPONSE","7","6,7,4,1,8,9,3","6,7,4,1,8,9,3","1","3,4,5,6,7,8,8,7,8,9,9,10","6","4",""
"","","","call-function","40","160050","0.0-0.0-1.4-0.4-3.4","auditory","A03F69","","","","","","","","","",""
"1418","<p>Test 6 von 12</p>","0","html-button-response","41","161469","0.0-0.0-1.5-0.5-0.5","auditory","A03F69","","","","","","","","","",""
"null","digits/seven.wav","","audio-keyboard-response","42","162787","0.0-0.0-1.5-0.5-1.25-0.25","auditory","A03F69","null","","","","","","","","",""
"null","digits/two.wav","","audio-keyboard-response","43","163830","0.0-0.0-1.5-0.5-1.26-0.26","auditory","A03F69","null","","","","","","","","",""
"null","digits/six.wav","","audio-keyboard-response","44","164876","0.0-0.0-1.5-0.5-1.27-0.27","auditory","A03F69","null","","","","","","","","",""
"null","digits/eight.wav","","audio-keyboard-response","45","165750","0.0-0.0-1.5-0.5-1.28-0.28","auditory","A03F69","null","","","","","","","","",""
"null","digits/three.wav","","audio-keyboard-response","46","166753","0.0-0.0-1.5-0.5-1.29-0.29","auditory","A03F69","null","","","","","","","","",""
"null","digits/one.wav","","audio-keyboard-response","47","167875","0.0-0.0-1.5-0.5-1.30-0.30","auditory","A03F69","null","","","","","","","","",""
"null","digits/nine.wav","","audio-keyboard-response","48","168801","0.0-0.0-1.5-0.5-1.31-0.31","auditory","A03F69","null","","","","","","","","",""
"null","digits/five.wav","","audio-keyboard-response","49","169836","0.0-0.0-1.5-0.5-1.32-0.32","auditory","A03F69","null","","","","","","","","",""
"41023","<div class = numbox><p>Wie lauteten die Zahlen <b>in umgekehrter Reihenfolge</b>?<br> Antwort mit Enter-Taste best&auml;tigen.</p><button id = button_1 class = ""square num-button"" onclick = ""recordClick(this)""><div class = content><div class = numbers>1</div></div></button><button id = button_2 class = ""square num-button"" onclick = ""recordClick(this)""><div class = content><div class = numbers>2</div></div></button><button id = button_3 class = ""square num-button"" onclick = ""recordClick(this)""><div class = content><div class = numbers>3</div></div></button><button id = button_4 class = ""square num-button"" onclick = ""recordClick(this)""><div class = content><div class = numbers>4</div></div></button><button id = button_5 class = ""square num-button"" onclick = ""recordClick(this)""><div class = content><div class = numbers>5</div></div></button><button id = button_6 class = ""square num-button"" onclick = ""recordClick(this)""><div class = content><div class = numbers>6</div></div></button><button id = button_7 class = ""square num-button"" onclick = ""recordClick(this)""><div class = content><div class = numbers>7</div></div></button><button id = button_8 class = ""square num-button"" onclick = ""recordClick(this)""><div class = content><div class = numbers>8</div></div></button><button id = button_9 class = ""square num-button"" onclick = ""recordClick(this)""><div class = content><div class = numbers>9</div></div></button><button class = clear_button id = ""ClearButton"" onclick = ""clearResponse()"">L&ouml;schen</button><p><u><b>Ihre Antwort:</b></u></p><div id=echoed_txt style=""font-size: 30px; color:blue;""><b></b></div></div>","","html-keyboard-response","50","211111","0.0-0.0-1.5-0.5-2.5","auditory","A03F69","13","BDS-RESPONSE","8","5,9,1,2,8,6,3,7","5,9,1,3,8,6,2,7","0","3,4,5,6,7,8,8,7,8,9,9,10","7","5",""
"","","","call-function","51","211112","0.0-0.0-1.5-0.5-3.5","auditory","A03F69","","","","","","","","","",""
"1666","<p>Test 7 von 12</p>","0","html-button-response","52","212778","0.0-0.0-1.6-0.6-0.6","auditory","A03F69","","","","","","","","","",""
"null","digits/two.wav","","audio-keyboard-response","53","214082","0.0-0.0-1.6-0.6-1.33-0.33","auditory","A03F69","null","","","","","","","","",""
"null","digits/seven.wav","","audio-keyboard-response","54","215149","0.0-0.0-1.6-0.6-1.34-0.34","auditory","A03F69","null","","","","","","","","",""
"null","digits/eight.wav","","audio-keyboard-response","55","216024","0.0-0.0-1.6-0.6-1.35-0.35","auditory","A03F69","null","","","","","","","","",""
"null","digits/four.wav","","audio-keyboard-response","56","217037","0.0-0.0-1.6-0.6-1.36-0.36","auditory","A03F69","null","","","","","","","","",""
"null","digits/five.wav","","audio-keyboard-response","57","218072","0.0-0.0-1.6-0.6-1.37-0.37","auditory","A03F69","null","","","","","","","","",""
"null","digits/three.wav","","audio-keyboard-response","58","219074","0.0-0.0-1.6-0.6-1.38-0.38","auditory","A03F69","null","","","","","","","","",""
"null","digits/six.wav","","audio-keyboard-response","59","220122","0.0-0.0-1.6-0.6-1.39-0.39","auditory","A03F69","null","","","","","","","","",""
"null","digits/one.wav","","audio-keyboard-response","60","221242","0.0-0.0-1.6-0.6-1.40-0.40","auditory","A03F69","null","","","","","","","","",""
"41586","<div class = numbox><p>Wie lauteten die Zahlen <b>in umgekehrter Reihenfolge</b>?<br> Antwort mit Enter-Taste best&auml;tigen.</p><button id = button_1 class = ""square num-button"" onclick = ""recordClick(this)""><div class = content><div class = numbers>1</div></div></button><button id = button_2 class = ""square num-button"" onclick = ""recordClick(this)""><div class = content><div class = numbers>2</div></div></button><button id = button_3 class = ""square num-button"" onclick = ""recordClick(this)""><div class = content><div class = numbers>3</div></div></button><button id = button_4 class = ""square num-button"" onclick = ""recordClick(this)""><div class = content><div class = numbers>4</div></div></button><button id = button_5 class = ""square num-button"" onclick = ""recordClick(this)""><div class = content><div class = numbers>5</div></div></button><button id = button_6 class = ""square num-button"" onclick = ""recordClick(this)""><div class = content><div class = numbers>6</div></div></button><button id = button_7 class = ""square num-button"" onclick = ""recordClick(this)""><div class = content><div class = numbers>7</div></div></button><button id = button_8 class = ""square num-button"" onclick = ""recordClick(this)""><div class = content><div class = numbers>8</div></div></button><button id = button_9 class = ""square num-button"" onclick = ""recordClick(this)""><div class = content><div class = numbers>9</div></div></button><button class = clear_button id = ""ClearButton"" onclick = ""clearResponse()"">L&ouml;schen</button><p><u><b>Ihre Antwort:</b></u></p><div id=echoed_txt style=""font-size: 30px; color:blue;""><b></b></div></div>","","html-keyboard-response","61","263081","0.0-0.0-1.6-0.6-2.6","auditory","A03F69","13","BDS-RESPONSE","8","1,5,3,6,4,8,7,2","1,6,3,5,4,8,7,2","0","3,4,5,6,7,8,8,7,8,9,9,10","7","5",""
"","","","call-function","62","263081","0.0-0.0-1.6-0.6-3.6","auditory","A03F69","","","","","","","","","",""
"1492","<p>Test 8 von 12</p>","0","html-button-response","63","264573","0.0-0.0-1.7-0.7-0.7","auditory","A03F69","","","","","","","","","",""
"null","digits/five.wav","","audio-keyboard-response","64","265860","0.0-0.0-1.7-0.7-1.41-0.41","auditory","A03F69","null","","","","","","","","",""
"null","digits/seven.wav","","audio-keyboard-response","65","266928","0.0-0.0-1.7-0.7-1.42-0.42","auditory","A03F69","null","","","","","","","","",""
"null","digits/nine.wav","","audio-keyboard-response","66","267855","0.0-0.0-1.7-0.7-1.43-0.43","auditory","A03F69","null","","","","","","","","",""
"null","digits/eight.wav","","audio-keyboard-response","67","268729","0.0-0.0-1.7-0.7-1.44-0.44","auditory","A03F69","null","","","","","","","","",""
"null","digits/four.wav","","audio-keyboard-response","68","269743","0.0-0.0-1.7-0.7-1.45-0.45","auditory","A03F69","null","","","","","","","","",""
"null","digits/three.wav","","audio-keyboard-response","69","270745","0.0-0.0-1.7-0.7-1.46-0.46","auditory","A03F69","null","","","","","","","","",""
"null","digits/one.wav","","audio-keyboard-response","70","271867","0.0-0.0-1.7-0.7-1.47-0.47","auditory","A03F69","null","","","","","","","","",""
"17627","<div class = numbox><p>Wie lauteten die Zahlen <b>in umgekehrter Reihenfolge</b>?<br> Antwort mit Enter-Taste best&auml;tigen.</p><button id = button_1 class = ""square num-button"" onclick = ""recordClick(this)""><div class = content><div class = numbers>1</div></div></button><button id = button_2 class = ""square num-button"" onclick = ""recordClick(this)""><div class = content><div class = numbers>2</div></div></button><button id = button_3 class = ""square num-button"" onclick = ""recordClick(this)""><div class = content><div class = numbers>3</div></div></button><button id = button_4 class = ""square num-button"" onclick = ""recordClick(this)""><div class = content><div class = numbers>4</div></div></button><button id = button_5 class = ""square num-button"" onclick = ""recordClick(this)""><div class = content><div class = numbers>5</div></div></button><button id = button_6 class = ""square num-button"" onclick = ""recordClick(this)""><div class = content><div class = numbers>6</div></div></button><button id = button_7 class = ""square num-button"" onclick = ""recordClick(this)""><div class = content><div class = numbers>7</div></div></button><button id = button_8 class = ""square num-button"" onclick = ""recordClick(this)""><div class = content><div class = numbers>8</div></div></button><button id = button_9 class = ""square num-button"" onclick = ""recordClick(this)""><div class = content><div class = numbers>9</div></div></button><button class = clear_button id = ""ClearButton"" onclick = ""clearResponse()"">L&ouml;schen</button><p><u><b>Ihre Antwort:</b></u></p><div id=echoed_txt style=""font-size: 30px; color:blue;""><b></b></div></div>","","html-keyboard-response","71","289747","0.0-0.0-1.7-0.7-2.7","auditory","A03F69","13","BDS-RESPONSE","7","1,3,4,8,9,7,5","1,3,4,8,9,7,5","1","3,4,5,6,7,8,8,7,8,9,9,10","7","5",""
"","","","call-function","72","289748","0.0-0.0-1.7-0.7-3.7","auditory","A03F69","","","","","","","","","",""
"1297","<p>Test 9 von 12</p>","0","html-button-response","73","291045","0.0-0.0-1.8-0.8-0.8","auditory","A03F69","","","","","","","","","",""
"null","digits/five.wav","","audio-keyboard-response","74","292335","0.0-0.0-1.8-0.8-1.48-0.48","auditory","A03F69","null","","","","","","","","",""
"null","digits/one.wav","","audio-keyboard-response","75","293457","0.0-0.0-1.8-0.8-1.49-0.49","auditory","A03F69","null","","","","","","","","",""
"null","digits/six.wav","","audio-keyboard-response","76","294501","0.0-0.0-1.8-0.8-1.50-0.50","auditory","A03F69","null","","","","","","","","",""
"null","digits/two.wav","","audio-keyboard-response","77","295546","0.0-0.0-1.8-0.8-1.51-0.51","auditory","A03F69","null","","","","","","","","",""
"null","digits/three.wav","","audio-keyboard-response","78","296549","0.0-0.0-1.8-0.8-1.52-0.52","auditory","A03F69","null","","","","","","","","",""
"null","digits/eight.wav","","audio-keyboard-response","79","297423","0.0-0.0-1.8-0.8-1.53-0.53","auditory","A03F69","null","","","","","","","","",""
"null","digits/seven.wav","","audio-keyboard-response","80","298492","0.0-0.0-1.8-0.8-1.54-0.54","auditory","A03F69","null","","","","","","","","",""
"null","digits/nine.wav","","audio-keyboard-response","81","299418","0.0-0.0-1.8-0.8-1.55-0.55","auditory","A03F69","null","","","","","","","","",""
"18941","<div class = numbox><p>Wie lauteten die Zahlen <b>in umgekehrter Reihenfolge</b>?<br> Antwort mit Enter-Taste best&auml;tigen.</p><button id = button_1 class = ""square num-button"" onclick = ""recordClick(this)""><div class = content><div class = numbers>1</div></div></button><button id = button_2 class = ""square num-button"" onclick = ""recordClick(this)""><div class = content><div class = numbers>2</div></div></button><button id = button_3 class = ""square num-button"" onclick = ""recordClick(this)""><div class = content><div class = numbers>3</div></div></button><button id = button_4 class = ""square num-button"" onclick = ""recordClick(this)""><div class = content><div class = numbers>4</div></div></button><button id = button_5 class = ""square num-button"" onclick = ""recordClick(this)""><div class = content><div class = numbers>5</div></div></button><button id = button_6 class = ""square num-button"" onclick = ""recordClick(this)""><div class = content><div class = numbers>6</div></div></button><button id = button_7 class = ""square num-button"" onclick = ""recordClick(this)""><div class = content><div class = numbers>7</div></div></button><button id = button_8 class = ""square num-button"" onclick = ""recordClick(this)""><div class = content><div class = numbers>8</div></div></button><button id = button_9 class = ""square num-button"" onclick = ""recordClick(this)""><div class = content><div class = numbers>9</div></div></button><button class = clear_button id = ""ClearButton"" onclick = ""clearResponse()"">L&ouml;schen</button><p><u><b>Ihre Antwort:</b></u></p><div id=echoed_txt style=""font-size: 30px; color:blue;""><b></b></div></div>","","html-keyboard-response","82","318612","0.0-0.0-1.8-0.8-2.8","auditory","A03F69","13","BDS-RESPONSE","8","9,7,8,3,2,6,1,5","9,7,8,3,2,6,1,5","1","3,4,5,6,7,8,8,7,8,9,9,10","7","6",""
"","","","call-function","83","318613","0.0-0.0-1.8-0.8-3.8","auditory","A03F69","","","","","","","","","",""
"1180","<p>Test 10 von 12</p>","0","html-button-response","84","319793","0.0-0.0-1.9-0.9-0.9","auditory","A03F69","","","","","","","","","",""
"null","digits/three.wav","","audio-keyboard-response","85","321051","0.0-0.0-1.9-0.9-1.56-0.56","auditory","A03F69","null","","","","","","","","",""
"null","digits/one.wav","","audio-keyboard-response","86","322173","0.0-0.0-1.9-0.9-1.57-0.57","auditory","A03F69","null","","","","","","","","",""
"null","digits/four.wav","","audio-keyboard-response","87","323184","0.0-0.0-1.9-0.9-1.58-0.58","auditory","A03F69","null","","","","","","","","",""
"null","digits/nine.wav","","audio-keyboard-response","88","324112","0.0-0.0-1.9-0.9-1.59-0.59","auditory","A03F69","null","","","","","","","","",""
"null","digits/two.wav","","audio-keyboard-response","89","325160","0.0-0.0-1.9-0.9-1.60-0.60","auditory","A03F69","null","","","","","","","","",""
"null","digits/five.wav","","audio-keyboard-response","90","326192","0.0-0.0-1.9-0.9-1.61-0.61","auditory","A03F69","null","","","","","","","","",""
"null","digits/seven.wav","","audio-keyboard-response","91","327260","0.0-0.0-1.9-0.9-1.62-0.62","auditory","A03F69","null","","","","","","","","",""
"null","digits/eight.wav","","audio-keyboard-response","92","328134","0.0-0.0-1.9-0.9-1.63-0.63","auditory","A03F69","null","","","","","","","","",""
"null","digits/six.wav","","audio-keyboard-response","93","329179","0.0-0.0-1.9-0.9-1.64-0.64","auditory","A03F69","null","","","","","","","","",""
"43211","<div class = numbox><p>Wie lauteten die Zahlen <b>in umgekehrter Reihenfolge</b>?<br> Antwort mit Enter-Taste best&auml;tigen.</p><button id = button_1 class = ""square num-button"" onclick = ""recordClick(this)""><div class = content><div class = numbers>1</div></div></button><button id = button_2 class = ""square num-button"" onclick = ""recordClick(this)""><div class = content><div class = numbers>2</div></div></button><button id = button_3 class = ""square num-button"" onclick = ""recordClick(this)""><div class = content><div class = numbers>3</div></div></button><button id = button_4 class = ""square num-button"" onclick = ""recordClick(this)""><div class = content><div class = numbers>4</div></div></button><button id = button_5 class = ""square num-button"" onclick = ""recordClick(this)""><div class = content><div class = numbers>5</div></div></button><button id = button_6 class = ""square num-button"" onclick = ""recordClick(this)""><div class = content><div class = numbers>6</div></div></button><button id = button_7 class = ""square num-button"" onclick = ""recordClick(this)""><div class = content><div class = numbers>7</div></div></button><button id = button_8 class = ""square num-button"" onclick = ""recordClick(this)""><div class = content><div class = numbers>8</div></div></button><button id = button_9 class = ""square num-button"" onclick = ""recordClick(this)""><div class = content><div class = numbers>9</div></div></button><button class = clear_button id = ""ClearButton"" onclick = ""clearResponse()"">L&ouml;schen</button><p><u><b>Ihre Antwort:</b></u></p><div id=echoed_txt style=""font-size: 30px; color:blue;""><b></b></div></div>","","html-keyboard-response","94","372642","0.0-0.0-1.9-0.9-2.9","auditory","A03F69","13","BDS-RESPONSE","9","6,8,7,9,5,3,1","6,8,7,5,2,9,4,1,3","0","3,4,5,6,7,8,8,7,8,9,9,10","8","7",""
"","","","call-function","95","372643","0.0-0.0-1.9-0.9-3.9","auditory","A03F69","","","","","","","","","",""
"1135","<p>Test 11 von 12</p>","0","html-button-response","96","373778","0.0-0.0-1.10-0.10-0.10","auditory","A03F69","","","","","","","","","",""
"null","digits/one.wav","","audio-keyboard-response","97","375156","0.0-0.0-1.10-0.10-1.65-0.65","auditory","A03F69","null","","","","","","","","",""
"null","digits/four.wav","","audio-keyboard-response","98","376167","0.0-0.0-1.10-0.10-1.66-0.66","auditory","A03F69","null","","","","","","","","",""
"null","digits/seven.wav","","audio-keyboard-response","99","377236","0.0-0.0-1.10-0.10-1.67-0.67","auditory","A03F69","null","","","","","","","","",""
"null","digits/five.wav","","audio-keyboard-response","100","378268","0.0-0.0-1.10-0.10-1.68-0.68","auditory","A03F69","null","","","","","","","","",""
"null","digits/six.wav","","audio-keyboard-response","101","379314","0.0-0.0-1.10-0.10-1.69-0.69","auditory","A03F69","null","","","","","","","","",""
"null","digits/nine.wav","","audio-keyboard-response","102","380242","0.0-0.0-1.10-0.10-1.70-0.70","auditory","A03F69","null","","","","","","","","",""
"null","digits/eight.wav","","audio-keyboard-response","103","381116","0.0-0.0-1.10-0.10-1.71-0.71","auditory","A03F69","null","","","","","","","","",""
"null","digits/three.wav","","audio-keyboard-response","104","382119","0.0-0.0-1.10-0.10-1.72-0.72","auditory","A03F69","null","","","","","","","","",""
"null","digits/two.wav","","audio-keyboard-response","105","383166","0.0-0.0-1.10-0.10-1.73-0.73","auditory","A03F69","null","","","","","","","","",""
"21278","<div class = numbox><p>Wie lauteten die Zahlen <b>in umgekehrter Reihenfolge</b>?<br> Antwort mit Enter-Taste best&auml;tigen.</p><button id = button_1 class = ""square num-button"" onclick = ""recordClick(this)""><div class = content><div class = numbers>1</div></div></button><button id = button_2 class = ""square num-button"" onclick = ""recordClick(this)""><div class = content><div class = numbers>2</div></div></button><button id = button_3 class = ""square num-button"" onclick = ""recordClick(this)""><div class = content><div class = numbers>3</div></div></button><button id = button_4 class = ""square num-button"" onclick = ""recordClick(this)""><div class = content><div class = numbers>4</div></div></button><button id = button_5 class = ""square num-button"" onclick = ""recordClick(this)""><div class = content><div class = numbers>5</div></div></button><button id = button_6 class = ""square num-button"" onclick = ""recordClick(this)""><div class = content><div class = numbers>6</div></div></button><button id = button_7 class = ""square num-button"" onclick = ""recordClick(this)""><div class = content><div class = numbers>7</div></div></button><button id = button_8 class = ""square num-button"" onclick = ""recordClick(this)""><div class = content><div class = numbers>8</div></div></button><button id = button_9 class = ""square num-button"" onclick = ""recordClick(this)""><div class = content><div class = numbers>9</div></div></button><button class = clear_button id = ""ClearButton"" onclick = ""clearResponse()"">L&ouml;schen</button><p><u><b>Ihre Antwort:</b></u></p><div id=echoed_txt style=""font-size: 30px; color:blue;""><b></b></div></div>","","html-keyboard-response","106","404697","0.0-0.0-1.10-0.10-2.10","auditory","A03F69","13","BDS-RESPONSE","9","2,3,8,9,6,5,7,4,1","2,3,8,9,6,5,7,4,1","1","3,4,5,6,7,8,8,7,8,9,9,10","8","7",""
"","","","call-function","107","404697","0.0-0.0-1.10-0.10-3.10","auditory","A03F69","","","","","","","","","",""
"1230","<p>Test 12 von 12</p>","0","html-button-response","108","405927","0.0-0.0-1.11-0.11-0.11","auditory","A03F69","","","","","","","","","",""
"null","digits/three.wav","","audio-keyboard-response","109","407187","0.0-0.0-1.11-0.11-1.74-0.74","auditory","A03F69","null","","","","","","","","",""
"null","digits/one.wav","","audio-keyboard-response","110","408306","0.0-0.0-1.11-0.11-1.75-0.75","auditory","A03F69","null","","","","","","","","",""
"null","digits/five.wav","","audio-keyboard-response","111","409341","0.0-0.0-1.11-0.11-1.76-0.76","auditory","A03F69","null","","","","","","","","",""
"null","digits/six.wav","","audio-keyboard-response","112","410389","0.0-0.0-1.11-0.11-1.77-0.77","auditory","A03F69","null","","","","","","","","",""
"null","digits/eight.wav","","audio-keyboard-response","113","411261","0.0-0.0-1.11-0.11-1.78-0.78","auditory","A03F69","null","","","","","","","","",""
"null","digits/two.wav","","audio-keyboard-response","114","412306","0.0-0.0-1.11-0.11-1.79-0.79","auditory","A03F69","null","","","","","","","","",""
"null","digits/four.wav","","audio-keyboard-response","115","413320","0.0-0.0-1.11-0.11-1.80-0.80","auditory","A03F69","null","","","","","","","","",""
"null","digits/seven.wav","","audio-keyboard-response","116","414387","0.0-0.0-1.11-0.11-1.81-0.81","auditory","A03F69","null","","","","","","","","",""
"null","digits/nine.wav","","audio-keyboard-response","117","415315","0.0-0.0-1.11-0.11-1.82-0.82","auditory","A03F69","null","","","","","","","","",""
"null","digits/one.wav","","audio-keyboard-response","118","416435","0.0-0.0-1.11-0.11-1.83-0.83","auditory","A03F69","null","","","","","","","","",""
"23161","<div class = numbox><p>Wie lauteten die Zahlen <b>in umgekehrter Reihenfolge</b>?<br> Antwort mit Enter-Taste best&auml;tigen.</p><button id = button_1 class = ""square num-button"" onclick = ""recordClick(this)""><div class = content><div class = numbers>1</div></div></button><button id = button_2 class = ""square num-button"" onclick = ""recordClick(this)""><div class = content><div class = numbers>2</div></div></button><button id = button_3 class = ""square num-button"" onclick = ""recordClick(this)""><div class = content><div class = numbers>3</div></div></button><button id = button_4 class = ""square num-button"" onclick = ""recordClick(this)""><div class = content><div class = numbers>4</div></div></button><button id = button_5 class = ""square num-button"" onclick = ""recordClick(this)""><div class = content><div class = numbers>5</div></div></button><button id = button_6 class = ""square num-button"" onclick = ""recordClick(this)""><div class = content><div class = numbers>6</div></div></button><button id = button_7 class = ""square num-button"" onclick = ""recordClick(this)""><div class = content><div class = numbers>7</div></div></button><button id = button_8 class = ""square num-button"" onclick = ""recordClick(this)""><div class = content><div class = numbers>8</div></div></button><button id = button_9 class = ""square num-button"" onclick = ""recordClick(this)""><div class = content><div class = numbers>9</div></div></button><button class = clear_button id = ""ClearButton"" onclick = ""clearResponse()"">L&ouml;schen</button><p><u><b>Ihre Antwort:</b></u></p><div id=echoed_txt style=""font-size: 30px; color:blue;""><b></b></div></div>","","html-keyboard-response","119","439849","0.0-0.0-1.11-0.11-2.11","auditory","A03F69","13","BDS-RESPONSE","10","1,9,7,4,2,6,5,3,1","1,9,7,4,2,8,6,5,1,3","0","3,4,5,6,7,8,8,7,8,9,9,10","9","8",""
"","","","call-function","120","439849","0.0-0.0-1.11-0.11-3.11","auditory","A03F69","","","","","","","","","",""
"12862","<p>Die Aufgabe ist erledigt! Vielen Dank!</p><p>Die Gesamtzahl Ihrer korrekten Antworten ist <b>8</b>.</p>","0","html-button-response","121","452719","0.0-1.0","auditory","A03F69","","","","","","","","","",""
