"rt","stimulus","button_pressed","trial_type","trial_index","time_elapsed","internal_node_id","BDS_modality","subject","key_press","designation","span","answer","correct","was_correct","spanHistory","max_span","total_correct","value"
"42957","<p>Willkommen bei der <b>Ziffernspannen-Aufgabe.</b></p><p>Bei jedem Versuch h&ouml;ren Sie eine Ziffernfolge und sollen diese in umgekehrter Reihenfolge wiedergeben.</p><p>Zum Beispiel, falls sie die Zahlen <b style=""color:blue;"">Eins</b>, <b style=""color:blue;"">Zwei</b>, <b style=""color:blue;"">Drei</b>, geh&ouml;rt haben, dann antworten Sie mit <b style=""color:blue;"">3</b>, <b style=""color:blue;"">2</b>, <b style=""color:blue;"">1</b></p><p>Um eine hohe Qualit&auml;t der Daten zu gew&auml;hrleisten, ist es sehr wichtig, dass Sie keine Ged&auml;chtnisst&uuml;tze (z.B. Stift und Papier) verwenden.<br>Bitte bearbeiten Sie die Aufgabe ausschlie&#223;lich im Kopf.</p><p>Es werden insgesamt 12 Durchl&auml;ufe gemacht. Die Teilname dauert etwa 10 Minuten. Am Ende sehen sie Ihre erreichte Punktzahl.</p>","0","html-button-response","0","42958","0.0-0.0-0.0","auditory","A02F6F","","","","","","","","","",""
"1517","<p>Test 1 von 12</p>","0","html-button-response","1","44480","0.0-0.0-1.0-0.0-0.0","auditory","A02F6F","","","","","","","","","",""
"null","digits/six.wav","","audio-keyboard-response","2","46051","0.0-0.0-1.0-0.0-1.0-0.0","auditory","A02F6F","null","","","","","","","","",""
"null","digits/four.wav","","audio-keyboard-response","3","47064","0.0-0.0-1.0-0.0-1.1-0.1","auditory","A02F6F","null","","","","","","","","",""
"null","digits/one.wav","","audio-keyboard-response","4","48184","0.0-0.0-1.0-0.0-1.2-0.2","auditory","A02F6F","null","","","","","","","","",""
"6063","<div class = numbox><p>Wie lauteten die Zahlen <b>in umgekehrter Reihenfolge</b>?<br> Antwort mit Enter-Taste best&auml;tigen.</p><button id = button_1 class = ""square num-button"" onclick = ""recordClick(this)""><div class = content><div class = numbers>1</div></div></button><button id = button_2 class = ""square num-button"" onclick = ""recordClick(this)""><div class = content><div class = numbers>2</div></div></button><button id = button_3 class = ""square num-button"" onclick = ""recordClick(this)""><div class = content><div class = numbers>3</div></div></button><button id = button_4 class = ""square num-button"" onclick = ""recordClick(this)""><div class = content><div class = numbers>4</div></div></button><button id = button_5 class = ""square num-button"" onclick = ""recordClick(this)""><div class = content><div class = numbers>5</div></div></button><button id = button_6 class = ""square num-button"" onclick = ""recordClick(this)""><div class = content><div class = numbers>6</div></div></button><button id = button_7 class = ""square num-button"" onclick = ""recordClick(this)""><div class = content><div class = numbers>7</div></div></button><button id = button_8 class = ""square num-button"" onclick = ""recordClick(this)""><div class = content><div class = numbers>8</div></div></button><button id = button_9 class = ""square num-button"" onclick = ""recordClick(this)""><div class = content><div class = numbers>9</div></div></button><button class = clear_button id = ""ClearButton"" onclick = ""clearResponse()"">L&ouml;schen</button><p><u><b>Ihre Antwort:</b></u></p><div id=echoed_txt style=""font-size: 30px; color:blue;""><b></b></div></div>","","html-keyboard-response","5","54500","0.0-0.0-1.0-0.0-2.0","auditory","A02F6F","13","BDS-RESPONSE","3","1,4,6","1,4,6","1","3,4,5,6,7,7,8,9,10,10,9,10","0","0",""
"","","","call-function","6","54501","0.0-0.0-1.0-0.0-3.0","auditory","A02F6F","","","","","","","","","",""
"7851","<p>Test 2 von 12</p>","0","html-button-response","7","62353","0.0-0.0-1.1-0.1-0.1","auditory","A02F6F","","","","","","","","","",""
"null","digits/six.wav","","audio-keyboard-response","8","63650","0.0-0.0-1.1-0.1-1.3-0.3","auditory","A02F6F","null","","","","","","","","",""
"null","digits/four.wav","","audio-keyboard-response","9","64664","0.0-0.0-1.1-0.1-1.4-0.4","auditory","A02F6F","null","","","","","","","","",""
"null","digits/five.wav","","audio-keyboard-response","10","65698","0.0-0.0-1.1-0.1-1.5-0.5","auditory","A02F6F","null","","","","","","","","",""
"null","digits/one.wav","","audio-keyboard-response","11","66818","0.0-0.0-1.1-0.1-1.6-0.6","auditory","A02F6F","null","","","","","","","","",""
"8394","<div class = numbox><p>Wie lauteten die Zahlen <b>in umgekehrter Reihenfolge</b>?<br> Antwort mit Enter-Taste best&auml;tigen.</p><button id = button_1 class = ""square num-button"" onclick = ""recordClick(this)""><div class = content><div class = numbers>1</div></div></button><button id = button_2 class = ""square num-button"" onclick = ""recordClick(this)""><div class = content><div class = numbers>2</div></div></button><button id = button_3 class = ""square num-button"" onclick = ""recordClick(this)""><div class = content><div class = numbers>3</div></div></button><button id = button_4 class = ""square num-button"" onclick = ""recordClick(this)""><div class = content><div class = numbers>4</div></div></button><button id = button_5 class = ""square num-button"" onclick = ""recordClick(this)""><div class = content><div class = numbers>5</div></div></button><button id = button_6 class = ""square num-button"" onclick = ""recordClick(this)""><div class = content><div class = numbers>6</div></div></button><button id = button_7 class = ""square num-button"" onclick = ""recordClick(this)""><div class = content><div class = numbers>7</div></div></button><button id = button_8 class = ""square num-button"" onclick = ""recordClick(this)""><div class = content><div class = numbers>8</div></div></button><button id = button_9 class = ""square num-button"" onclick = ""recordClick(this)""><div class = content><div class = numbers>9</div></div></button><button class = clear_button id = ""ClearButton"" onclick = ""clearResponse()"">L&ouml;schen</button><p><u><b>Ihre Antwort:</b></u></p><div id=echoed_txt style=""font-size: 30px; color:blue;""><b></b></div></div>","","html-keyboard-response","12","75466","0.0-0.0-1.1-0.1-2.1","auditory","A02F6F","13","BDS-RESPONSE","4","1,5,4,6","1,5,4,6","1","3,4,5,6,7,7,8,9,10,10,9,10","3","1",""
"","","","call-function","13","75466","0.0-0.0-1.1-0.1-3.1","auditory","A02F6F","","","","","","","","","",""
"8417","<p>Test 3 von 12</p>","0","html-button-response","14","83884","0.0-0.0-1.2-0.2-0.2","auditory","A02F6F","","","","","","","","","",""
"null","digits/six.wav","","audio-keyboard-response","15","85186","0.0-0.0-1.2-0.2-1.7-0.7","auditory","A02F6F","null","","","","","","","","",""
"null","digits/one.wav","","audio-keyboard-response","16","86306","0.0-0.0-1.2-0.2-1.8-0.8","auditory","A02F6F","null","","","","","","","","",""
"null","digits/eight.wav","","audio-keyboard-response","17","87181","0.0-0.0-1.2-0.2-1.9-0.9","auditory","A02F6F","null","","","","","","","","",""
"null","digits/three.wav","","audio-keyboard-response","18","88184","0.0-0.0-1.2-0.2-1.10-0.10","auditory","A02F6F","null","","","","","","","","",""
"null","digits/nine.wav","","audio-keyboard-response","19","89112","0.0-0.0-1.2-0.2-1.11-0.11","auditory","A02F6F","null","","","","","","","","",""
"16458","<div class = numbox><p>Wie lauteten die Zahlen <b>in umgekehrter Reihenfolge</b>?<br> Antwort mit Enter-Taste best&auml;tigen.</p><button id = button_1 class = ""square num-button"" onclick = ""recordClick(this)""><div class = content><div class = numbers>1</div></div></button><button id = button_2 class = ""square num-button"" onclick = ""recordClick(this)""><div class = content><div class = numbers>2</div></div></button><button id = button_3 class = ""square num-button"" onclick = ""recordClick(this)""><div class = content><div class = numbers>3</div></div></button><button id = button_4 class = ""square num-button"" onclick = ""recordClick(this)""><div class = content><div class = numbers>4</div></div></button><button id = button_5 class = ""square num-button"" onclick = ""recordClick(this)""><div class = content><div class = numbers>5</div></div></button><button id = button_6 class = ""square num-button"" onclick = ""recordClick(this)""><div class = content><div class = numbers>6</div></div></button><button id = button_7 class = ""square num-button"" onclick = ""recordClick(this)""><div class = content><div class = numbers>7</div></div></button><button id = button_8 class = ""square num-button"" onclick = ""recordClick(this)""><div class = content><div class = numbers>8</div></div></button><button id = button_9 class = ""square num-button"" onclick = ""recordClick(this)""><div class = content><div class = numbers>9</div></div></button><button class = clear_button id = ""ClearButton"" onclick = ""clearResponse()"">L&ouml;schen</button><p><u><b>Ihre Antwort:</b></u></p><div id=echoed_txt style=""font-size: 30px; color:blue;""><b></b></div></div>","","html-keyboard-response","20","105821","0.0-0.0-1.2-0.2-2.2","auditory","A02F6F","13","BDS-RESPONSE","5","9,3,8,1,6","9,3,8,1,6","1","3,4,5,6,7,7,8,9,10,10,9,10","4","2",""
"","","","call-function","21","105822","0.0-0.0-1.2-0.2-3.2","auditory","A02F6F","","","","","","","","","",""
"9723","<p>Test 4 von 12</p>","0","html-button-response","22","115545","0.0-0.0-1.3-0.3-0.3","auditory","A02F6F","","","","","","","","","",""
"null","digits/three.wav","","audio-keyboard-response","23","116802","0.0-0.0-1.3-0.3-1.12-0.12","auditory","A02F6F","null","","","","","","","","",""
"null","digits/six.wav","","audio-keyboard-response","24","117847","0.0-0.0-1.3-0.3-1.13-0.13","auditory","A02F6F","null","","","","","","","","",""
"null","digits/nine.wav","","audio-keyboard-response","25","118775","0.0-0.0-1.3-0.3-1.14-0.14","auditory","A02F6F","null","","","","","","","","",""
"null","digits/five.wav","","audio-keyboard-response","26","119810","0.0-0.0-1.3-0.3-1.15-0.15","auditory","A02F6F","null","","","","","","","","",""
"null","digits/seven.wav","","audio-keyboard-response","27","120877","0.0-0.0-1.3-0.3-1.16-0.16","auditory","A02F6F","null","","","","","","","","",""
"null","digits/two.wav","","audio-keyboard-response","28","121922","0.0-0.0-1.3-0.3-1.17-0.17","auditory","A02F6F","null","","","","","","","","",""
"36396","<div class = numbox><p>Wie lauteten die Zahlen <b>in umgekehrter Reihenfolge</b>?<br> Antwort mit Enter-Taste best&auml;tigen.</p><button id = button_1 class = ""square num-button"" onclick = ""recordClick(this)""><div class = content><div class = numbers>1</div></div></button><button id = button_2 class = ""square num-button"" onclick = ""recordClick(this)""><div class = content><div class = numbers>2</div></div></button><button id = button_3 class = ""square num-button"" onclick = ""recordClick(this)""><div class = content><div class = numbers>3</div></div></button><button id = button_4 class = ""square num-button"" onclick = ""recordClick(this)""><div class = content><div class = numbers>4</div></div></button><button id = button_5 class = ""square num-button"" onclick = ""recordClick(this)""><div class = content><div class = numbers>5</div></div></button><button id = button_6 class = ""square num-button"" onclick = ""recordClick(this)""><div class = content><div class = numbers>6</div></div></button><button id = button_7 class = ""square num-button"" onclick = ""recordClick(this)""><div class = content><div class = numbers>7</div></div></button><button id = button_8 class = ""square num-button"" onclick = ""recordClick(this)""><div class = content><div class = numbers>8</div></div></button><button id = button_9 class = ""square num-button"" onclick = ""recordClick(this)""><div class = content><div class = numbers>9</div></div></button><button class = clear_button id = ""ClearButton"" onclick = ""clearResponse()"">L&ouml;schen</button><p><u><b>Ihre Antwort:</b></u></p><div id=echoed_txt style=""font-size: 30px; color:blue;""><b></b></div></div>","","html-keyboard-response","29","158571","0.0-0.0-1.3-0.3-2.3","auditory","A02F6F","13","BDS-RESPONSE","6","2,7,5,9,6,3","2,7,5,9,6,3","1","3,4,5,6,7,7,8,9,10,10,9,10","5","3",""
"","","","call-function","30","158571","0.0-0.0-1.3-0.3-3.3","auditory","A02F6F","","","","","","","","","",""
"11466","<p>Test 5 von 12</p>","0","html-button-response","31","170038","0.0-0.0-1.4-0.4-0.4","auditory","A02F6F","","","","","","","","","",""
"null","digits/nine.wav","","audio-keyboard-response","32","171212","0.0-0.0-1.4-0.4-1.18-0.18","auditory","A02F6F","null","","","","","","","","",""
"null","digits/one.wav","","audio-keyboard-response","33","172332","0.0-0.0-1.4-0.4-1.19-0.19","auditory","A02F6F","null","","","","","","","","",""
"null","digits/seven.wav","","audio-keyboard-response","34","173399","0.0-0.0-1.4-0.4-1.20-0.20","auditory","A02F6F","null","","","","","","","","",""
"null","digits/two.wav","","audio-keyboard-response","35","174444","0.0-0.0-1.4-0.4-1.21-0.21","auditory","A02F6F","null","","","","","","","","",""
"null","digits/five.wav","","audio-keyboard-response","36","175479","0.0-0.0-1.4-0.4-1.22-0.22","auditory","A02F6F","null","","","","","","","","",""
"null","digits/four.wav","","audio-keyboard-response","37","176492","0.0-0.0-1.4-0.4-1.23-0.23","auditory","A02F6F","null","","","","","","","","",""
"null","digits/six.wav","","audio-keyboard-response","38","177538","0.0-0.0-1.4-0.4-1.24-0.24","auditory","A02F6F","null","","","","","","","","",""
"18431","<div class = numbox><p>Wie lauteten die Zahlen <b>in umgekehrter Reihenfolge</b>?<br> Antwort mit Enter-Taste best&auml;tigen.</p><button id = button_1 class = ""square num-button"" onclick = ""recordClick(this)""><div class = content><div class = numbers>1</div></div></button><button id = button_2 class = ""square num-button"" onclick = ""recordClick(this)""><div class = content><div class = numbers>2</div></div></button><button id = button_3 class = ""square num-button"" onclick = ""recordClick(this)""><div class = content><div class = numbers>3</div></div></button><button id = button_4 class = ""square num-button"" onclick = ""recordClick(this)""><div class = content><div class = numbers>4</div></div></button><button id = button_5 class = ""square num-button"" onclick = ""recordClick(this)""><div class = content><div class = numbers>5</div></div></button><button id = button_6 class = ""square num-button"" onclick = ""recordClick(this)""><div class = content><div class = numbers>6</div></div></button><button id = button_7 class = ""square num-button"" onclick = ""recordClick(this)""><div class = content><div class = numbers>7</div></div></button><button id = button_8 class = ""square num-button"" onclick = ""recordClick(this)""><div class = content><div class = numbers>8</div></div></button><button id = button_9 class = ""square num-button"" onclick = ""recordClick(this)""><div class = content><div class = numbers>9</div></div></button><button class = clear_button id = ""ClearButton"" onclick = ""clearResponse()"">L&ouml;schen</button><p><u><b>Ihre Antwort:</b></u></p><div id=echoed_txt style=""font-size: 30px; color:blue;""><b></b></div></div>","","html-keyboard-response","39","196220","0.0-0.0-1.4-0.4-2.4","auditory","A02F6F","13","BDS-RESPONSE","7","6,4,5,3,7,1,9","6,4,5,2,7,1,9","0","3,4,5,6,7,7,8,9,10,10,9,10","6","4",""
"","","","call-function","40","196221","0.0-0.0-1.4-0.4-3.4","auditory","A02F6F","","","","","","","","","",""
"11086","<p>Test 6 von 12</p>","0","html-button-response","41","207308","0.0-0.0-1.5-0.5-0.5","auditory","A02F6F","","","","","","","","","",""
"null","digits/nine.wav","","audio-keyboard-response","42","208492","0.0-0.0-1.5-0.5-1.25-0.25","auditory","A02F6F","null","","","","","","","","",""
"null","digits/one.wav","","audio-keyboard-response","43","209612","0.0-0.0-1.5-0.5-1.26-0.26","auditory","A02F6F","null","","","","","","","","",""
"null","digits/six.wav","","audio-keyboard-response","44","210657","0.0-0.0-1.5-0.5-1.27-0.27","auditory","A02F6F","null","","","","","","","","",""
"null","digits/four.wav","","audio-keyboard-response","45","211671","0.0-0.0-1.5-0.5-1.28-0.28","auditory","A02F6F","null","","","","","","","","",""
"null","digits/seven.wav","","audio-keyboard-response","46","212737","0.0-0.0-1.5-0.5-1.29-0.29","auditory","A02F6F","null","","","","","","","","",""
"null","digits/eight.wav","","audio-keyboard-response","47","213612","0.0-0.0-1.5-0.5-1.30-0.30","auditory","A02F6F","null","","","","","","","","",""
"null","digits/three.wav","","audio-keyboard-response","48","214614","0.0-0.0-1.5-0.5-1.31-0.31","auditory","A02F6F","null","","","","","","","","",""
"35007","<div class = numbox><p>Wie lauteten die Zahlen <b>in umgekehrter Reihenfolge</b>?<br> Antwort mit Enter-Taste best&auml;tigen.</p><button id = button_1 class = ""square num-button"" onclick = ""recordClick(this)""><div class = content><div class = numbers>1</div></div></button><button id = button_2 class = ""square num-button"" onclick = ""recordClick(this)""><div class = content><div class = numbers>2</div></div></button><button id = button_3 class = ""square num-button"" onclick = ""recordClick(this)""><div class = content><div class = numbers>3</div></div></button><button id = button_4 class = ""square num-button"" onclick = ""recordClick(this)""><div class = content><div class = numbers>4</div></div></button><button id = button_5 class = ""square num-button"" onclick = ""recordClick(this)""><div class = content><div class = numbers>5</div></div></button><button id = button_6 class = ""square num-button"" onclick = ""recordClick(this)""><div class = content><div class = numbers>6</div></div></button><button id = button_7 class = ""square num-button"" onclick = ""recordClick(this)""><div class = content><div class = numbers>7</div></div></button><button id = button_8 class = ""square num-button"" onclick = ""recordClick(this)""><div class = content><div class = numbers>8</div></div></button><button id = button_9 class = ""square num-button"" onclick = ""recordClick(this)""><div class = content><div class = numbers>9</div></div></button><button class = clear_button id = ""ClearButton"" onclick = ""clearResponse()"">L&ouml;schen</button><p><u><b>Ihre Antwort:</b></u></p><div id=echoed_txt style=""font-size: 30px; color:blue;""><b></b></div></div>","","html-keyboard-response","49","249875","0.0-0.0-1.5-0.5-2.5","auditory","A02F6F","13","BDS-RESPONSE","7","3,8,7,4,6,1,9","3,8,7,4,6,1,9","1","3,4,5,6,7,7,8,9,10,10,9,10","6","4",""
"","","","call-function","50","249875","0.0-0.0-1.5-0.5-3.5","auditory","A02F6F","","","","","","","","","",""
"9101","<p>Test 7 von 12</p>","0","html-button-response","51","258978","0.0-0.0-1.6-0.6-0.6","auditory","A02F6F","","","","","","","","","",""
"null","digits/four.wav","","audio-keyboard-response","52","260246","0.0-0.0-1.6-0.6-1.32-0.32","auditory","A02F6F","null","","","","","","","","",""
"null","digits/seven.wav","","audio-keyboard-response","53","261313","0.0-0.0-1.6-0.6-1.33-0.33","auditory","A02F6F","null","","","","","","","","",""
"null","digits/one.wav","","audio-keyboard-response","54","262433","0.0-0.0-1.6-0.6-1.34-0.34","auditory","A02F6F","null","","","","","","","","",""
"null","digits/two.wav","","audio-keyboard-response","55","263478","0.0-0.0-1.6-0.6-1.35-0.35","auditory","A02F6F","null","","","","","","","","",""
"null","digits/nine.wav","","audio-keyboard-response","56","264406","0.0-0.0-1.6-0.6-1.36-0.36","auditory","A02F6F","null","","","","","","","","",""
"null","digits/six.wav","","audio-keyboard-response","57","265452","0.0-0.0-1.6-0.6-1.37-0.37","auditory","A02F6F","null","","","","","","","","",""
"null","digits/five.wav","","audio-keyboard-response","58","266486","0.0-0.0-1.6-0.6-1.38-0.38","auditory","A02F6F","null","","","","","","","","",""
"null","digits/three.wav","","audio-keyboard-response","59","267489","0.0-0.0-1.6-0.6-1.39-0.39","auditory","A02F6F","null","","","","","","","","",""
"30009","<div class = numbox><p>Wie lauteten die Zahlen <b>in umgekehrter Reihenfolge</b>?<br> Antwort mit Enter-Taste best&auml;tigen.</p><button id = button_1 class = ""square num-button"" onclick = ""recordClick(this)""><div class = content><div class = numbers>1</div></div></button><button id = button_2 class = ""square num-button"" onclick = ""recordClick(this)""><div class = content><div class = numbers>2</div></div></button><button id = button_3 class = ""square num-button"" onclick = ""recordClick(this)""><div class = content><div class = numbers>3</div></div></button><button id = button_4 class = ""square num-button"" onclick = ""recordClick(this)""><div class = content><div class = numbers>4</div></div></button><button id = button_5 class = ""square num-button"" onclick = ""recordClick(this)""><div class = content><div class = numbers>5</div></div></button><button id = button_6 class = ""square num-button"" onclick = ""recordClick(this)""><div class = content><div class = numbers>6</div></div></button><button id = button_7 class = ""square num-button"" onclick = ""recordClick(this)""><div class = content><div class = numbers>7</div></div></button><button id = button_8 class = ""square num-button"" onclick = ""recordClick(this)""><div class = content><div class = numbers>8</div></div></button><button id = button_9 class = ""square num-button"" onclick = ""recordClick(this)""><div class = content><div class = numbers>9</div></div></button><button class = clear_button id = ""ClearButton"" onclick = ""clearResponse()"">L&ouml;schen</button><p><u><b>Ihre Antwort:</b></u></p><div id=echoed_txt style=""font-size: 30px; color:blue;""><b></b></div></div>","","html-keyboard-response","60","297751","0.0-0.0-1.6-0.6-2.6","auditory","A02F6F","13","BDS-RESPONSE","8","3,5,6,9,2,1,7,4","3,5,6,9,2,1,7,4","1","3,4,5,6,7,7,8,9,10,10,9,10","7","5",""
"","","","call-function","61","297751","0.0-0.0-1.6-0.6-3.6","auditory","A02F6F","","","","","","","","","",""
"18332","<p>Test 8 von 12</p>","0","html-button-response","62","316084","0.0-0.0-1.7-0.7-0.7","auditory","A02F6F","","","","","","","","","",""
"null","digits/four.wav","","audio-keyboard-response","63","317345","0.0-0.0-1.7-0.7-1.40-0.40","auditory","A02F6F","null","","","","","","","","",""
"null","digits/six.wav","","audio-keyboard-response","64","318390","0.0-0.0-1.7-0.7-1.41-0.41","auditory","A02F6F","null","","","","","","","","",""
"null","digits/eight.wav","","audio-keyboard-response","65","319265","0.0-0.0-1.7-0.7-1.42-0.42","auditory","A02F6F","null","","","","","","","","",""
"null","digits/nine.wav","","audio-keyboard-response","66","320193","0.0-0.0-1.7-0.7-1.43-0.43","auditory","A02F6F","null","","","","","","","","",""
"null","digits/three.wav","","audio-keyboard-response","67","321195","0.0-0.0-1.7-0.7-1.44-0.44","auditory","A02F6F","null","","","","","","","","",""
"null","digits/five.wav","","audio-keyboard-response","68","322230","0.0-0.0-1.7-0.7-1.45-0.45","auditory","A02F6F","null","","","","","","","","",""
"null","digits/two.wav","","audio-keyboard-response","69","323275","0.0-0.0-1.7-0.7-1.46-0.46","auditory","A02F6F","null","","","","","","","","",""
"null","digits/seven.wav","","audio-keyboard-response","70","324342","0.0-0.0-1.7-0.7-1.47-0.47","auditory","A02F6F","null","","","","","","","","",""
"null","digits/one.wav","","audio-keyboard-response","71","325462","0.0-0.0-1.7-0.7-1.48-0.48","auditory","A02F6F","null","","","","","","","","",""
"38664","<div class = numbox><p>Wie lauteten die Zahlen <b>in umgekehrter Reihenfolge</b>?<br> Antwort mit Enter-Taste best&auml;tigen.</p><button id = button_1 class = ""square num-button"" onclick = ""recordClick(this)""><div class = content><div class = numbers>1</div></div></button><button id = button_2 class = ""square num-button"" onclick = ""recordClick(this)""><div class = content><div class = numbers>2</div></div></button><button id = button_3 class = ""square num-button"" onclick = ""recordClick(this)""><div class = content><div class = numbers>3</div></div></button><button id = button_4 class = ""square num-button"" onclick = ""recordClick(this)""><div class = content><div class = numbers>4</div></div></button><button id = button_5 class = ""square num-button"" onclick = ""recordClick(this)""><div class = content><div class = numbers>5</div></div></button><button id = button_6 class = ""square num-button"" onclick = ""recordClick(this)""><div class = content><div class = numbers>6</div></div></button><button id = button_7 class = ""square num-button"" onclick = ""recordClick(this)""><div class = content><div class = numbers>7</div></div></button><button id = button_8 class = ""square num-button"" onclick = ""recordClick(this)""><div class = content><div class = numbers>8</div></div></button><button id = button_9 class = ""square num-button"" onclick = ""recordClick(this)""><div class = content><div class = numbers>9</div></div></button><button class = clear_button id = ""ClearButton"" onclick = ""clearResponse()"">L&ouml;schen</button><p><u><b>Ihre Antwort:</b></u></p><div id=echoed_txt style=""font-size: 30px; color:blue;""><b></b></div></div>","","html-keyboard-response","72","364379","0.0-0.0-1.7-0.7-2.7","auditory","A02F6F","13","BDS-RESPONSE","9","1,7,2,5,3,9,8,6,4","1,7,2,5,3,9,8,6,4","1","3,4,5,6,7,7,8,9,10,10,9,10","8","6",""
"","","","call-function","73","364379","0.0-0.0-1.7-0.7-3.7","auditory","A02F6F","","","","","","","","","",""
"18004","<p>Test 9 von 12</p>","0","html-button-response","74","382384","0.0-0.0-1.8-0.8-0.8","auditory","A02F6F","","","","","","","","","",""
"null","digits/five.wav","","audio-keyboard-response","75","383669","0.0-0.0-1.8-0.8-1.49-0.49","auditory","A02F6F","null","","","","","","","","",""
"null","digits/seven.wav","","audio-keyboard-response","76","384736","0.0-0.0-1.8-0.8-1.50-0.50","auditory","A02F6F","null","","","","","","","","",""
"null","digits/eight.wav","","audio-keyboard-response","77","385611","0.0-0.0-1.8-0.8-1.51-0.51","auditory","A02F6F","null","","","","","","","","",""
"null","digits/two.wav","","audio-keyboard-response","78","386656","0.0-0.0-1.8-0.8-1.52-0.52","auditory","A02F6F","null","","","","","","","","",""
"null","digits/four.wav","","audio-keyboard-response","79","387669","0.0-0.0-1.8-0.8-1.53-0.53","auditory","A02F6F","null","","","","","","","","",""
"null","digits/six.wav","","audio-keyboard-response","80","388715","0.0-0.0-1.8-0.8-1.54-0.54","auditory","A02F6F","null","","","","","","","","",""
"null","digits/one.wav","","audio-keyboard-response","81","389835","0.0-0.0-1.8-0.8-1.55-0.55","auditory","A02F6F","null","","","","","","","","",""
"null","digits/three.wav","","audio-keyboard-response","82","390837","0.0-0.0-1.8-0.8-1.56-0.56","auditory","A02F6F","null","","","","","","","","",""
"null","digits/nine.wav","","audio-keyboard-response","83","391765","0.0-0.0-1.8-0.8-1.57-0.57","auditory","A02F6F","null","","","","","","","","",""
"null","digits/five.wav","","audio-keyboard-response","84","392800","0.0-0.0-1.8-0.8-1.58-0.58","auditory","A02F6F","null","","","","","","","","",""
"36388","<div class = numbox><p>Wie lauteten die Zahlen <b>in umgekehrter Reihenfolge</b>?<br> Antwort mit Enter-Taste best&auml;tigen.</p><button id = button_1 class = ""square num-button"" onclick = ""recordClick(this)""><div class = content><div class = numbers>1</div></div></button><button id = button_2 class = ""square num-button"" onclick = ""recordClick(this)""><div class = content><div class = numbers>2</div></div></button><button id = button_3 class = ""square num-button"" onclick = ""recordClick(this)""><div class = content><div class = numbers>3</div></div></button><button id = button_4 class = ""square num-button"" onclick = ""recordClick(this)""><div class = content><div class = numbers>4</div></div></button><button id = button_5 class = ""square num-button"" onclick = ""recordClick(this)""><div class = content><div class = numbers>5</div></div></button><button id = button_6 class = ""square num-button"" onclick = ""recordClick(this)""><div class = content><div class = numbers>6</div></div></button><button id = button_7 class = ""square num-button"" onclick = ""recordClick(this)""><div class = content><div class = numbers>7</div></div></button><button id = button_8 class = ""square num-button"" onclick = ""recordClick(this)""><div class = content><div class = numbers>8</div></div></button><button id = button_9 class = ""square num-button"" onclick = ""recordClick(this)""><div class = content><div class = numbers>9</div></div></button><button class = clear_button id = ""ClearButton"" onclick = ""clearResponse()"">L&ouml;schen</button><p><u><b>Ihre Antwort:</b></u></p><div id=echoed_txt style=""font-size: 30px; color:blue;""><b></b></div></div>","","html-keyboard-response","85","429441","0.0-0.0-1.8-0.8-2.8","auditory","A02F6F","13","BDS-RESPONSE","10","5,9,3,1,6,4,2,8,7","5,9,3,1,6,4,2,8,7,5","0","3,4,5,6,7,7,8,9,10,10,9,10","9","7",""
"","","","call-function","86","429441","0.0-0.0-1.8-0.8-3.8","auditory","A02F6F","","","","","","","","","",""
"8493","<p>Test 10 von 12</p>","0","html-button-response","87","437936","0.0-0.0-1.9-0.9-0.9","auditory","A02F6F","","","","","","","","","",""
"null","digits/eight.wav","","audio-keyboard-response","88","439061","0.0-0.0-1.9-0.9-1.59-0.59","auditory","A02F6F","null","","","","","","","","",""
"null","digits/one.wav","","audio-keyboard-response","89","440181","0.0-0.0-1.9-0.9-1.60-0.60","auditory","A02F6F","null","","","","","","","","",""
"null","digits/six.wav","","audio-keyboard-response","90","441226","0.0-0.0-1.9-0.9-1.61-0.61","auditory","A02F6F","null","","","","","","","","",""
"null","digits/five.wav","","audio-keyboard-response","91","442261","0.0-0.0-1.9-0.9-1.62-0.62","auditory","A02F6F","null","","","","","","","","",""
"null","digits/nine.wav","","audio-keyboard-response","92","443189","0.0-0.0-1.9-0.9-1.63-0.63","auditory","A02F6F","null","","","","","","","","",""
"null","digits/four.wav","","audio-keyboard-response","93","444202","0.0-0.0-1.9-0.9-1.64-0.64","auditory","A02F6F","null","","","","","","","","",""
"null","digits/two.wav","","audio-keyboard-response","94","445247","0.0-0.0-1.9-0.9-1.65-0.65","auditory","A02F6F","null","","","","","","","","",""
"null","digits/three.wav","","audio-keyboard-response","95","446250","0.0-0.0-1.9-0.9-1.66-0.66","auditory","A02F6F","null","","","","","","","","",""
"null","digits/seven.wav","","audio-keyboard-response","96","447317","0.0-0.0-1.9-0.9-1.67-0.67","auditory","A02F6F","null","","","","","","","","",""
"null","digits/eight.wav","","audio-keyboard-response","97","448192","0.0-0.0-1.9-0.9-1.68-0.68","auditory","A02F6F","null","","","","","","","","",""
"25725","<div class = numbox><p>Wie lauteten die Zahlen <b>in umgekehrter Reihenfolge</b>?<br> Antwort mit Enter-Taste best&auml;tigen.</p><button id = button_1 class = ""square num-button"" onclick = ""recordClick(this)""><div class = content><div class = numbers>1</div></div></button><button id = button_2 class = ""square num-button"" onclick = ""recordClick(this)""><div class = content><div class = numbers>2</div></div></button><button id = button_3 class = ""square num-button"" onclick = ""recordClick(this)""><div class = content><div class = numbers>3</div></div></button><button id = button_4 class = ""square num-button"" onclick = ""recordClick(this)""><div class = content><div class = numbers>4</div></div></button><button id = button_5 class = ""square num-button"" onclick = ""recordClick(this)""><div class = content><div class = numbers>5</div></div></button><button id = button_6 class = ""square num-button"" onclick = ""recordClick(this)""><div class = content><div class = numbers>6</div></div></button><button id = button_7 class = ""square num-button"" onclick = ""recordClick(this)""><div class = content><div class = numbers>7</div></div></button><button id = button_8 class = ""square num-button"" onclick = ""recordClick(this)""><div class = content><div class = numbers>8</div></div></button><button id = button_9 class = ""square num-button"" onclick = ""recordClick(this)""><div class = content><div class = numbers>9</div></div></button><button class = clear_button id = ""ClearButton"" onclick = ""clearResponse()"">L&ouml;schen</button><p><u><b>Ihre Antwort:</b></u></p><div id=echoed_txt style=""font-size: 30px; color:blue;""><b></b></div></div>","","html-keyboard-response","98","474170","0.0-0.0-1.9-0.9-2.9","auditory","A02F6F","13","BDS-RESPONSE","10","8,7,3,2,4,9,5,6,1","8,7,3,2,4,9,5,6,1,8","0","3,4,5,6,7,7,8,9,10,10,9,10","9","7",""
"","","","call-function","99","474170","0.0-0.0-1.9-0.9-3.9","auditory","A02F6F","","","","","","","","","",""
"15881","<p>Test 11 von 12</p>","0","html-button-response","100","490053","0.0-0.0-1.10-0.10-0.10","auditory","A02F6F","","","","","","","","","",""
"null","digits/two.wav","","audio-keyboard-response","101","491349","0.0-0.0-1.10-0.10-1.69-0.69","auditory","A02F6F","null","","","","","","","","",""
"null","digits/six.wav","","audio-keyboard-response","102","492394","0.0-0.0-1.10-0.10-1.70-0.70","auditory","A02F6F","null","","","","","","","","",""
"null","digits/five.wav","","audio-keyboard-response","103","493428","0.0-0.0-1.10-0.10-1.71-0.71","auditory","A02F6F","null","","","","","","","","",""
"null","digits/seven.wav","","audio-keyboard-response","104","494495","0.0-0.0-1.10-0.10-1.72-0.72","auditory","A02F6F","null","","","","","","","","",""
"null","digits/three.wav","","audio-keyboard-response","105","495498","0.0-0.0-1.10-0.10-1.73-0.73","auditory","A02F6F","null","","","","","","","","",""
"null","digits/eight.wav","","audio-keyboard-response","106","496373","0.0-0.0-1.10-0.10-1.74-0.74","auditory","A02F6F","null","","","","","","","","",""
"null","digits/nine.wav","","audio-keyboard-response","107","497301","0.0-0.0-1.10-0.10-1.75-0.75","auditory","A02F6F","null","","","","","","","","",""
"null","digits/four.wav","","audio-keyboard-response","108","498314","0.0-0.0-1.10-0.10-1.76-0.76","auditory","A02F6F","null","","","","","","","","",""
"null","digits/one.wav","","audio-keyboard-response","109","499434","0.0-0.0-1.10-0.10-1.77-0.77","auditory","A02F6F","null","","","","","","","","",""
"34723","<div class = numbox><p>Wie lauteten die Zahlen <b>in umgekehrter Reihenfolge</b>?<br> Antwort mit Enter-Taste best&auml;tigen.</p><button id = button_1 class = ""square num-button"" onclick = ""recordClick(this)""><div class = content><div class = numbers>1</div></div></button><button id = button_2 class = ""square num-button"" onclick = ""recordClick(this)""><div class = content><div class = numbers>2</div></div></button><button id = button_3 class = ""square num-button"" onclick = ""recordClick(this)""><div class = content><div class = numbers>3</div></div></button><button id = button_4 class = ""square num-button"" onclick = ""recordClick(this)""><div class = content><div class = numbers>4</div></div></button><button id = button_5 class = ""square num-button"" onclick = ""recordClick(this)""><div class = content><div class = numbers>5</div></div></button><button id = button_6 class = ""square num-button"" onclick = ""recordClick(this)""><div class = content><div class = numbers>6</div></div></button><button id = button_7 class = ""square num-button"" onclick = ""recordClick(this)""><div class = content><div class = numbers>7</div></div></button><button id = button_8 class = ""square num-button"" onclick = ""recordClick(this)""><div class = content><div class = numbers>8</div></div></button><button id = button_9 class = ""square num-button"" onclick = ""recordClick(this)""><div class = content><div class = numbers>9</div></div></button><button class = clear_button id = ""ClearButton"" onclick = ""clearResponse()"">L&ouml;schen</button><p><u><b>Ihre Antwort:</b></u></p><div id=echoed_txt style=""font-size: 30px; color:blue;""><b></b></div></div>","","html-keyboard-response","110","534409","0.0-0.0-1.10-0.10-2.10","auditory","A02F6F","13","BDS-RESPONSE","9","1,4,9,8,3,7,5,6,2","1,4,9,8,3,7,5,6,2","1","3,4,5,6,7,7,8,9,10,10,9,10","9","7",""
"","","","call-function","111","534410","0.0-0.0-1.10-0.10-3.10","auditory","A02F6F","","","","","","","","","",""
"11803","<p>Test 12 von 12</p>","0","html-button-response","112","546214","0.0-0.0-1.11-0.11-0.11","auditory","A02F6F","","","","","","","","","",""
"null","digits/eight.wav","","audio-keyboard-response","113","547338","0.0-0.0-1.11-0.11-1.78-0.78","auditory","A02F6F","null","","","","","","","","",""
"null","digits/six.wav","","audio-keyboard-response","114","548383","0.0-0.0-1.11-0.11-1.79-0.79","auditory","A02F6F","null","","","","","","","","",""
"null","digits/nine.wav","","audio-keyboard-response","115","549311","0.0-0.0-1.11-0.11-1.80-0.80","auditory","A02F6F","null","","","","","","","","",""
"null","digits/two.wav","","audio-keyboard-response","116","550356","0.0-0.0-1.11-0.11-1.81-0.81","auditory","A02F6F","null","","","","","","","","",""
"null","digits/one.wav","","audio-keyboard-response","117","551476","0.0-0.0-1.11-0.11-1.82-0.82","auditory","A02F6F","null","","","","","","","","",""
"null","digits/three.wav","","audio-keyboard-response","118","552479","0.0-0.0-1.11-0.11-1.83-0.83","auditory","A02F6F","null","","","","","","","","",""
"null","digits/five.wav","","audio-keyboard-response","119","553513","0.0-0.0-1.11-0.11-1.84-0.84","auditory","A02F6F","null","","","","","","","","",""
"null","digits/four.wav","","audio-keyboard-response","120","554527","0.0-0.0-1.11-0.11-1.85-0.85","auditory","A02F6F","null","","","","","","","","",""
"null","digits/seven.wav","","audio-keyboard-response","121","555594","0.0-0.0-1.11-0.11-1.86-0.86","auditory","A02F6F","null","","","","","","","","",""
"null","digits/eight.wav","","audio-keyboard-response","122","556468","0.0-0.0-1.11-0.11-1.87-0.87","auditory","A02F6F","null","","","","","","","","",""
"41354","<div class = numbox><p>Wie lauteten die Zahlen <b>in umgekehrter Reihenfolge</b>?<br> Antwort mit Enter-Taste best&auml;tigen.</p><button id = button_1 class = ""square num-button"" onclick = ""recordClick(this)""><div class = content><div class = numbers>1</div></div></button><button id = button_2 class = ""square num-button"" onclick = ""recordClick(this)""><div class = content><div class = numbers>2</div></div></button><button id = button_3 class = ""square num-button"" onclick = ""recordClick(this)""><div class = content><div class = numbers>3</div></div></button><button id = button_4 class = ""square num-button"" onclick = ""recordClick(this)""><div class = content><div class = numbers>4</div></div></button><button id = button_5 class = ""square num-button"" onclick = ""recordClick(this)""><div class = content><div class = numbers>5</div></div></button><button id = button_6 class = ""square num-button"" onclick = ""recordClick(this)""><div class = content><div class = numbers>6</div></div></button><button id = button_7 class = ""square num-button"" onclick = ""recordClick(this)""><div class = content><div class = numbers>7</div></div></button><button id = button_8 class = ""square num-button"" onclick = ""recordClick(this)""><div class = content><div class = numbers>8</div></div></button><button id = button_9 class = ""square num-button"" onclick = ""recordClick(this)""><div class = content><div class = numbers>9</div></div></button><button class = clear_button id = ""ClearButton"" onclick = ""clearResponse()"">L&ouml;schen</button><p><u><b>Ihre Antwort:</b></u></p><div id=echoed_txt style=""font-size: 30px; color:blue;""><b></b></div></div>","","html-keyboard-response","123","598075","0.0-0.0-1.11-0.11-2.11","auditory","A02F6F","13","BDS-RESPONSE","10","8,7,4,5,3,1,2,9,6,8","8,7,4,5,3,1,2,9,6,8","1","3,4,5,6,7,7,8,9,10,10,9,10","9","8",""
"","","","call-function","124","598075","0.0-0.0-1.11-0.11-3.11","auditory","A02F6F","","","","","","","","","",""
"17566","<p>Die Aufgabe ist erledigt! Vielen Dank!</p><p>Die Gesamtzahl Ihrer korrekten Antworten ist <b>9</b>.</p>","0","html-button-response","125","615648","0.0-1.0","auditory","A02F6F","","","","","","","","","",""
